trial,condition,primeword,target,correctResp,repeats.thisRepN,repeats.thisTrialN,repeats.thisN,repeats.thisIndex,thisRow.t,notes,scanner_init.started,text.started,key_resp_2.started,scanner_init.stopped,key_resp_2.keys,key_resp_2.rt,key_resp_2.duration,instructions.started,key_instruct.started,instructions.stopped,key_instruct.keys,key_instruct.rt,key_instruct.duration,longfix.started,startfixation.started,startfixation.stopped,longfix.stopped,trials.started,bwtrialsfixation.started,prime.started,key_resp.started,bwtrialsfixation.stopped,prime.stopped,filler.started,stimulus.started,filler.stopped,stimulus.stopped,filler2.started,key_resp.stopped,filler2.stopped,trials.stopped,key_resp.keys,participant,session,date,expName,psychopyVersion,frameRate,expStart,
,,,,,,,,,,,0.0043641660013236105,0.01328004099195823,0.01328004099195823,1.021521374990698,space,0.9762768340006005,None,,,,,,,,,,,,,,,,,,,,,,,,,,307115,001,2023-11-27_16h59.11.329,semanticsuppression,2023.2.2,None,2023-11-27 16h59.16.912538 -0800,
,,,,,,,,,,,,,,,,,,1.0215530830028001,1.0458165829768404,4.064608290995238,space,3.0127854159800336,None,,,,,,,,,,,,,,,,,,,,307115,001,2023-11-27_16h59.11.329,semanticsuppression,2023.2.2,None,2023-11-27 16h59.16.912538 -0800,
78,1D,book,cook,2,0,0,0,77,14.319229207991157,,,,,,,,,,,,,,,4.064642707991879,4.080508665996604,14.319229207991157,14.264227207982913,14.312507041002391,14.319229207991157,15.254396165983053,15.254396165983053,15.313968582981033,15.551192957995227,1.299256708996836,15.951166082988493,1.6865769590076525,16.247220874996856,1.9992469169956166,18.330584249983076,4.065965374989901,18.330907374998787,None,307115,001,2023-11-27_16h59.11.329,semanticsuppression,2023.2.2,None,2023-11-27 16h59.16.912538 -0800,
204,Different,goat,ship,3,0,1,1,203,18.34388920798665,,,,,,,,,,,,,,,,,,,18.331638374977047,18.34388920798665,19.33628341599251,19.33628341599251,19.33628341599251,19.63439737498993,1.3026589170040097,20.034454582986655,1.6898441670055036,20.330533624975942,2.0026317090087105,22.41399649999221,4.069380708999233,22.414327749982476,None,307115,001,2023-11-27_16h59.11.329,semanticsuppression,2023.2.2,None,2023-11-27 16h59.16.912538 -0800,
123,Same,boat,boat,3,0,2,2,122,22.422837291000178,,,,,,,,,,,,,,,,,,,22.41484324997873,22.422837291000178,23.41979437498958,23.41979437498958,23.41979437498958,23.716610332980053,1.3059971670154482,24.117880790989147,1.6932736250164453,24.41397991598933,2.0059865840303246,26.49744420798379,4.072834750026232,26.497802540980047,None,307115,001,2023-11-27_16h59.11.329,semanticsuppression,2023.2.2,None,2023-11-27 16h59.16.912538 -0800,
143,Same,boat,boat,3,0,3,3,142,26.502470207982697,,,,,,,,,,,,,,,,,,,26.498280999978306,26.502470207982697,27.5030612499977,27.5030612499977,27.5030612499977,27.797274207987357,1.3092774170218036,28.20117166597629,1.696584375022212,28.49740224998095,2.009400250040926,30.580693458003225,4.07608758402057,30.58114454097813,None,307115,001,2023-11-27_16h59.11.329,semanticsuppression,2023.2.2,None,2023-11-27 16h59.16.912538 -0800,
104,Different,goat,ship,3,0,4,4,103,30.590308207989438,,,,,,,,,,,,,,,,,,,30.581634957983624,30.590308207989438,31.585863915999653,31.585863915999653,31.585863915999653,31.880682582996087,1.2997233750356827,32.28060404097778,1.6959985840367153,32.56799037498422,1.9999795840412844,34.66415599998436,4.0795482090325095,34.66456337500131,None,307115,001,2023-11-27_16h59.11.329,semanticsuppression,2023.2.2,None,2023-11-27 16h59.16.912538 -0800,
115,Same,cook,cook,2,0,5,5,114,34.67353458298021,,,,,,,,,,,,,,,,,,,34.665051916002994,34.67353458298021,35.65360416600015,35.65360416600015,35.66884241599473,35.9512311249855,1.2991975000477396,36.351086374983424,1.6864921250671614,36.64735995797673,1.9993839590460993,38.73069016597583,4.06607062506373,38.730973832978634,None,307115,001,2023-11-27_16h59.11.329,semanticsuppression,2023.2.2,None,2023-11-27 16h59.16.912538 -0800,
12,Different,chef,book,3,0,6,6,11,38.74082479099161,,,,,,,,,,,,,,,,,,,38.73140170797706,38.74082479099161,39.7361798749771,39.7361798749771,39.7361798749771,40.030680374999065,1.3026680840703193,40.43537925000419,1.6907780420733616,40.73347116599325,2.002793834079057,42.81412154098507,4.069514292059466,42.81447791599203,None,307115,001,2023-11-27_16h59.11.329,semanticsuppression,2023.2.2,None,2023-11-27 16h59.16.912538 -0800,
144,Different,goat,ship,3,0,7,7,143,42.82346966597834,,,,,,,,,,,,,,,,,,,42.81506074999925,42.82346966597834,43.819695040991064,43.819695040991064,43.819695040991064,44.117977832996985,1.3061142500955611,44.518064249976305,1.693461459071841,44.81405941597768,2.0060989170742687,46.89740887499647,4.072794542094925,46.89772508299211,None,307115,001,2023-11-27_16h59.11.329,semanticsuppression,2023.2.2,None,2023-11-27 16h59.16.912538 -0800,
67,Same,goat,goat,2,0,8,8,66,46.90438766599982,,,,,,,,,,,,,,,,,,,46.89814549998846,46.90438766599982,47.902739665994886,47.902739665994886,47.902739665994886,48.19747762498446,1.3094336671056226,48.60132233297918,1.6967178341001272,48.897454999998445,2.009563375089783,50.98083104100078,4.0762133341049775,50.98118279100163,None,307115,001,2023-11-27_16h59.11.329,semanticsuppression,2023.2.2,None,2023-11-27 16h59.16.912538 -0800,
103,Same,boat,boat,3,0,9,9,102,50.98925512499409,,,,,,,,,,,,,,,,,,,50.98164133299724,50.98925512499409,51.980772957991576,51.980772957991576,51.98665045798407,52.26832462497987,1.300338834116701,52.68476362500223,1.696270875108894,52.980808332999004,2.000108834123239,55.05109462499968,4.079514375102008,55.064457040978596,None,307115,001,2023-11-27_16h59.11.329,semanticsuppression,2023.2.2,None,2023-11-27 16h59.16.912538 -0800,
139,Same,chef,chef,2,0,10,10,138,55.07365612499416,,,,,,,,,,,,,,,,,,,55.064997165987734,55.07365612499416,56.05402229097672,56.05402229097672,56.06967345799785,56.35138279097737,1.2994987501297146,56.75141566598904,1.686811792111257,57.047497374995146,1.9994888751243707,59.130781707994174,4.066165250114864,59.13107383297756,None,307115,001,2023-11-27_16h59.11.329,semanticsuppression,2023.2.2,None,2023-11-27 16h59.16.912538 -0800,
124,Different,goat,ship,3,0,11,11,123,59.13939766600379,,,,,,,,,,,,,,,,,,,59.131560999987414,59.13939766600379,60.136550832976354,60.136550832976354,60.136550832976354,60.43488395799068,1.3027835001412313,60.83517320800456,1.6905740001238883,61.130798083002446,2.002923625143012,63.2142343329906,4.069617834145902,63.21455929099466,None,307115,001,2023-11-27_16h59.11.329,semanticsuppression,2023.2.2,None,2023-11-27 16h59.16.912538 -0800,
43,Same,boat,boat,3,0,12,12,42,63.22291437498643,,,,,,,,,,,,,,,,,,,63.21501783299027,63.22291437498643,64.2195691659872,64.2195691659872,64.2195691659872,64.51420895798947,1.306245792133268,64.91865029098699,1.694052084145369,65.21418937499402,2.006212667154614,67.29832320800051,4.073760167142609,67.29923899998539,None,307115,001,2023-11-27_16h59.11.329,semanticsuppression,2023.2.2,None,2023-11-27 16h59.16.912538 -0800,
118,1D,book,cook,2,0,13,13,117,67.30885462497827,,,,,,,,,,,,,,,,,,,67.30004991599708,67.30885462497827,68.30329749998054,68.30329749998054,68.30329749998054,68.59998087497661,1.3095250001642853,69.00142862499342,1.6968246671603993,69.29751341597876,2.009509125171462,71.38093295798171,4.0763158751651645,71.38121787499404,None,307115,001,2023-11-27_16h59.11.329,semanticsuppression,2023.2.2,None,2023-11-27 16h59.16.912538 -0800,
167,Same,goat,goat,2,0,14,14,166,71.38874324999051,,,,,,,,,,,,,,,,,,,71.38162583298981,71.38874324999051,72.3808874579845,72.3808874579845,72.38631999999052,72.66822883300483,1.3129237921675667,73.08515966599225,1.7005549591849558,73.38098712498322,2.000718084163964,75.45132312498754,4.079600000171922,75.46449933300028,None,307115,001,2023-11-27_16h59.11.329,semanticsuppression,2023.2.2,None,2023-11-27 16h59.16.912538 -0800,
163,Same,boat,boat,3,0,15,15,162,75.4726475829957,,,,,,,,,,,,,,,,,,,75.46489170799032,75.4726475829957,76.45362799998838,76.45362799998838,76.4693265829992,76.75177366597927,1.2996300421946216,77.15157370798988,1.686976584198419,77.44759204098955,1.9996389591833577,79.53096616599942,4.066355584189296,79.53132195799844,None,307115,001,2023-11-27_16h59.11.329,semanticsuppression,2023.2.2,None,2023-11-27 16h59.16.912538 -0800,
1,semanticR,boat,ship,3,0,16,16,0,79.53791662497679,,,,,,,,,,,,,,,,,,,79.53183762499248,79.53791662497679,80.5364704579988,80.5364704579988,80.5364704579988,80.834818540985,1.302909834193997,81.233168457984,1.7023862921923865,81.53091333300108,2.0030268341943156,83.61434724999708,4.06973025019397,83.6146878330037,None,307115,001,2023-11-27_16h59.11.329,semanticsuppression,2023.2.2,None,2023-11-27 16h59.16.912538 -0800,
68,Different,ship,goat,2,0,17,17,67,83.62276608298998,,,,,,,,,,,,,,,,,,,83.61517616600031,83.62276608298998,84.61990216598497,84.61990216598497,84.61990216598497,84.91651650000131,1.3063282502116635,85.31853870800114,1.6939344172133133,85.61434791598003,2.0063524591969326,87.69766133298981,4.073049292201176,87.69799308298388,None,307115,001,2023-11-27_16h59.11.329,semanticsuppression,2023.2.2,None,2023-11-27 16h59.16.912538 -0800,
174,1D,cook,book,3,0,18,18,173,87.70671079098247,,,,,,,,,,,,,,,,,,,87.69853854097892,87.70671079098247,88.70317808300024,88.70317808300024,88.70317808300024,89.00025487499079,1.3096591672219802,89.40106504099094,1.6964575842139311,89.69764174998272,2.009657334216172,91.78096799997729,4.076353750220733,91.78126974997576,None,307115,001,2023-11-27_16h59.11.329,semanticsuppression,2023.2.2,None,2023-11-27 16h59.16.912538 -0800,
193,semanticR,cook,chef,2,0,19,19,192,91.7874511659902,,,,,,,,,,,,,,,,,,,91.78170812499593,91.7874511659902,92.78098279098049,92.78098279098049,92.78646333300276,93.06859195799916,1.312958625232568,93.4848439579946,1.7002391252317466,93.78105191598297,1.9991424592444673,95.85218999997596,4.079941084230086,95.8649178329797,None,307115,001,2023-11-27_16h59.11.329,semanticsuppression,2023.2.2,None,2023-11-27 16h59.16.912538 -0800,
177,semanticR,chef,cook,2,0,20,20,176,95.87140699999873,,,,,,,,,,,,,,,,,,,95.86531241599005,95.87140699999873,96.85351341599016,96.85351341599016,96.87115504097892,97.1525977079873,1.2997687502356712,97.5540316249826,1.6894320002465975,97.852350207977,1.999857500253711,99.93104120797943,4.066417542257113,99.93134374998044,None,307115,001,2023-11-27_16h59.11.329,semanticsuppression,2023.2.2,None,2023-11-27 16h59.16.912538 -0800,
191,Same,ship,ship,3,0,21,21,190,99.93870808297652,,,,,,,,,,,,,,,,,,,99.93171137498575,99.93870808297652,100.93702104099793,100.93702104099793,100.93702104099793,101.23493687500013,1.3030336672673002,101.63496112500434,1.69036162525299,101.93105016599293,2.0031885422649793,104.01446083298652,4.0698422922578175,104.01475883298554,None,307115,001,2023-11-27_16h59.11.329,semanticsuppression,2023.2.2,None,2023-11-27 16h59.16.912538 -0800,
101,semanticR,boat,ship,3,0,22,22,100,104.02105062498595,,,,,,,,,,,,,,,,,,,104.01518041599775,104.02105062498595,105.01897074998124,105.01897074998124,105.01897074998124,105.31445899998653,1.3065031252626795,105.72034058297868,1.6957352922763675,106.01452112497645,2.0064970422827173,108.09773541599861,4.078686042281333,108.10359116600011,None,307115,001,2023-11-27_16h59.11.329,semanticsuppression,2023.2.2,None,2023-11-27 16h59.16.912538 -0800,
26,1D,goat,boat,3,0,23,23,25,108.11440274998313,,,,,,,,,,,,,,,,,,,108.10391337500187,108.11440274998313,109.10358687498956,109.10358687498956,109.10358687498956,109.40280091599561,1.3097409172914922,109.8019972500042,1.6973953752894886,110.09776216599857,2.0097754593007267,112.18105295798159,4.076437667274149,112.18137529099477,None,307115,001,2023-11-27_16h59.11.329,semanticsuppression,2023.2.2,None,2023-11-27 16h59.16.912538 -0800,
159,Same,chef,chef,2,0,24,24,158,112.19077079099952,,,,,,,,,,,,,,,,,,,112.18186383298598,112.19077079099952,113.18111166599556,113.18111166599556,113.18634970797575,113.46697649999987,1.313205834303517,113.88118274998851,1.7004235842905473,114.16729466599645,1.9992787922965363,116.25184895799612,4.079907667299267,116.26498066599015,None,307115,001,2023-11-27_16h59.11.329,semanticsuppression,2023.2.2,None,2023-11-27 16h59.16.912538 -0800,
74,1D,cook,book,3,0,25,25,73,116.27382162498543,,,,,,,,,,,,,,,,,,,116.2655860829982,116.27382162498543,117.25386999998591,117.25386999998591,117.26932862499962,117.55173283300246,1.299846500303829,117.95226170797832,1.687664875324117,118.24780008298694,1.9998458753107116,120.3311214580026,4.066504917311249,120.33148979098769,None,307115,001,2023-11-27_16h59.11.329,semanticsuppression,2023.2.2,None,2023-11-27 16h59.16.912538 -0800,
224,Different,goat,ship,3,0,26,26,223,120.3393030409934,,,,,,,,,,,,,,,,,,,120.33203324998613,120.3393030409934,121.3360652079864,121.3360652079864,121.3360652079864,121.6311247079866,1.3031440843187738,122.03489595800056,1.690290209313389,122.33112216598238,2.003163167333696,124.4144463329867,4.06983008433599,124.41474366598413,None,307115,001,2023-11-27_16h59.11.329,semanticsuppression,2023.2.2,None,2023-11-27 16h59.16.912538 -0800,
228,Different,ship,goat,2,0,27,27,227,124.42300366598647,,,,,,,,,,,,,,,,,,,124.4151675409812,124.42300366598647,125.41996958298841,125.41996958298841,125.41996958298841,125.71837212500395,1.3064290843321942,126.1185473749938,1.693951167340856,126.41443375000381,2.0065584593394306,128.49783675000072,4.073219542333391,128.49812287499662,None,307115,001,2023-11-27_16h59.11.329,semanticsuppression,2023.2.2,None,2023-11-27 16h59.16.912538 -0800,
146,1D,goat,boat,3,0,28,28,145,128.50581349999993,,,,,,,,,,,,,,,,,,,128.49851283300086,128.50581349999993,129.50343462498859,129.50343462498859,129.50343462498859,129.80176354097784,1.309898167353822,130.20161633298267,1.6970076673605945,130.49788820798858,2.0099140843376517,132.58118670800468,4.076567625364987,132.5814764579991,None,307115,001,2023-11-27_16h59.11.329,semanticsuppression,2023.2.2,None,2023-11-27 16h59.16.912538 -0800,
24,Different,goat,ship,3,0,29,29,23,132.58769874999416,,,,,,,,,,,,,,,,,,,132.58190208298038,132.58769874999416,133.58119720799732,133.58119720799732,133.5871377909789,133.86846262498875,1.300363250367809,134.2812214579899,1.6966295423626434,134.56712012499338,2.0132775003730785,136.65189004098647,,136.66545249999035,None,307115,001,2023-11-27_16h59.11.329,semanticsuppression,2023.2.2,None,2023-11-27 16h59.16.912538 -0800,
38,1D,book,cook,2,0,30,30,37,136.67639633300132,,,,,,,,,,,,,,,,,,,136.66628116599168,136.67639633300132,137.65425283298828,137.65425283298828,137.670166625001,137.9502362079802,1.2997225843719207,138.35151783298352,1.6869230843731202,138.64794266599347,1.9999217503645923,140.7312647079816,4.066645917366259,140.73169095799676,None,307115,001,2023-11-27_16h59.11.329,semanticsuppression,2023.2.2,None,2023-11-27 16h59.16.912538 -0800,
18,1D,book,cook,2,0,31,31,17,140.73610574999475,,,,,,,,,,,,,,,,,,,140.73214974999428,140.73610574999475,141.73730554099893,141.73730554099893,141.73730554099893,142.0339296250022,1.3032604593900032,142.4346724159841,1.6900650423776824,142.7312260409817,2.003287125378847,144.81454091597698,4.069926167401718,144.8148239159782,None,307115,001,2023-11-27_16h59.11.329,semanticsuppression,2023.2.2,None,2023-11-27 16h59.16.912538 -0800,
41,semanticR,boat,ship,3,0,32,32,40,144.82225108298007,,,,,,,,,,,,,,,,,,,144.81519445800222,144.82225108298007,145.81988749999437,145.81988749999437,145.81988749999437,146.11450850000256,1.3065229174098931,146.5172709999897,1.6926742093928624,146.81453316597617,2.0066809174022637,148.8980159999919,4.0734005424019415,148.89834808299202,None,307115,001,2023-11-27_16h59.11.329,semanticsuppression,2023.2.2,None,2023-11-27 16h59.16.912538 -0800,
77,semanticR,chef,cook,2,0,33,33,76,148.90755725000054,,,,,,,,,,,,,,,,,,,148.8988610410015,148.90755725000054,149.9037917079986,149.9037917079986,149.9037917079986,150.20214079099242,1.3100100004230626,150.60198804098764,1.697393875423586,150.8980121249915,2.0100528754119296,152.98127537500113,4.07666150041041,152.98157487498247,None,307115,001,2023-11-27_16h59.11.329,semanticsuppression,2023.2.2,None,2023-11-27 16h59.16.912538 -0800,
183,Same,boat,boat,3,0,34,34,182,152.9896648330032,,,,,,,,,,,,,,,,,,,152.98207229099353,152.9896648330032,153.98134129098617,153.98134129098617,153.98703791599837,154.26953695798875,1.300511500419816,154.68133583298186,1.6967378754343372,154.96723766598734,2.0132890004315414,157.05109333299333,4.079974250431405,157.06491537499824,None,307115,001,2023-11-27_16h59.11.329,semanticsuppression,2023.2.2,None,2023-11-27 16h59.16.912538 -0800,
3,Same,boat,boat,3,0,35,35,2,157.0697962080012,,,,,,,,,,,,,,,,,,,157.0653806249902,157.0697962080012,158.05458174998057,158.05458174998057,158.06465308298357,158.35184437499265,1.2999590004328638,158.75169191599707,1.6870941674278583,159.0479899159982,2.000081750447862,161.1313747499953,4.066758417437086,161.13170574998367,None,307115,001,2023-11-27_16h59.11.329,semanticsuppression,2023.2.2,None,2023-11-27 16h59.16.912538 -0800,
205,semanticR,ship,boat,3,0,36,36,204,161.1381795409834,,,,,,,,,,,,,,,,,,,161.13216770798317,161.1381795409834,162.1369543329929,162.1369543329929,162.1369543329929,162.43524179098313,1.303369709465187,162.8350983329874,1.6904989174508955,163.13133520798874,2.0033551674569026,165.21583354097675,4.071294167457381,165.21674604099826,None,307115,001,2023-11-27_16h59.11.329,semanticsuppression,2023.2.2,None,2023-11-27 16h59.16.912538 -0800,
178,1D,book,cook,2,0,37,37,177,165.22625649999827,,,,,,,,,,,,,,,,,,,165.21762129099807,165.22625649999827,166.2199638329912,166.2199638329912,166.2199638329912,166.51835645799292,1.3066792094614357,166.9185684999975,1.6939657924813218,167.21470049998607,2.0068297094549052,169.29810954097775,4.07349316746695,169.29845879098866,None,307115,001,2023-11-27_16h59.11.329,semanticsuppression,2023.2.2,None,2023-11-27 16h59.16.912538 -0800,
82,1D,boat,goat,2,0,38,38,81,169.30656695799553,,,,,,,,,,,,,,,,,,,169.298954124999,169.30656695799553,170.3035378329805,170.3035378329805,170.3035378329805,170.60272033300134,1.3101290424820036,171.00184979097685,1.6972442094702274,171.29807295798673,2.0101047924836166,173.3814091660024,4.076794000488007,173.38174779099063,None,307115,001,2023-11-27_16h59.11.329,semanticsuppression,2023.2.2,None,2023-11-27 16h59.16.912538 -0800,
25,semanticR,ship,boat,3,0,39,39,24,173.39001795797958,,,,,,,,,,,,,,,,,,,173.38223154097795,173.39001795797958,174.381334124977,174.381334124977,174.38647920798394,174.66763974999776,1.3008722924860194,175.08142237499123,1.6968180004914757,175.36883204098558,2.000892625481356,177.45174541597953,,177.46490125000128,None,307115,001,2023-11-27_16h59.11.329,semanticsuppression,2023.2.2,None,2023-11-27 16h59.16.912538 -0800,
66,1D,goat,boat,3,0,40,40,65,177.47146583299036,,,,,,,,,,,,,,,,,,,177.4653003749845,177.47146583299036,178.45472275000066,178.45472275000066,178.46475541600375,178.7528252909833,1.3000950005080085,179.1519655409793,1.6873683755111415,179.44805512498715,2.0001832925190683,181.53175591598847,4.067177459510276,181.5322962499922,None,307115,001,2023-11-27_16h59.11.329,semanticsuppression,2023.2.2,None,2023-11-27 16h59.16.912538 -0800,
195,Same,cook,cook,2,0,41,41,194,181.54152733299998,,,,,,,,,,,,,,,,,,,181.53276554099284,181.54152733299998,182.53730208298657,182.53730208298657,182.53730208298657,182.83403583298787,1.3035470005124807,183.2356950409885,1.691090542532038,183.53148129099282,2.003476750513073,185.61489595798776,4.070344334526453,185.6157174159889,None,307115,001,2023-11-27_16h59.11.329,semanticsuppression,2023.2.2,None,2023-11-27 16h59.16.912538 -0800,
156,Different,book,chef,2,0,42,42,155,185.6240725829848,,,,,,,,,,,,,,,,,,,185.61618404099136,185.6240725829848,186.62057674999232,186.62057674999232,186.62057674999232,186.91863637499046,1.3067987505346537,187.3187340409786,1.6941461675451137,187.61477266598376,2.0068067505198997,189.6980821659963,4.073468709539156,189.6983936659817,None,307115,001,2023-11-27_16h59.11.329,semanticsuppression,2023.2.2,None,2023-11-27 16h59.16.912538 -0800,
89,semanticR,chef,cook,2,0,43,43,88,189.70645054097986,,,,,,,,,,,,,,,,,,,189.6988456659892,189.70645054097986,190.70379029097967,190.70379029097967,190.70379029097967,190.99807645799592,1.310091542545706,191.40227158297785,1.6976659595384263,191.69821845798288,2.0102544175460935,193.78151116598747,4.076900084532099,193.78185133298393,None,307115,001,2023-11-27_16h59.11.329,semanticsuppression,2023.2.2,None,2023-11-27 16h59.16.912538 -0800,
37,semanticR,chef,cook,2,0,44,44,36,193.78649704100098,,,,,,,,,,,,,,,,,,,193.7823182499851,193.78649704100098,194.78149270798895,194.78149270798895,194.7873077080003,195.06840737498715,1.2992622925667092,195.48154541599797,1.6969566255575046,195.7674383749836,1.999316917557735,197.8526902080048,,197.8664237499761,None,307115,001,2023-11-27_16h59.11.329,semanticsuppression,2023.2.2,None,2023-11-27 16h59.16.912538 -0800,
73,semanticR,cook,chef,2,0,45,45,72,197.87658349997946,,,,,,,,,,,,,,,,,,,197.86720399998012,197.87658349997946,198.85352566599613,198.85352566599613,198.86942945799092,199.14817066598334,1.3001686675706878,199.55210237498977,1.6874965845781844,199.84820974999457,2.0001865425729193,201.93162312498316,4.067008417565376,201.93201379099628,None,307115,001,2023-11-27_16h59.11.329,semanticsuppression,2023.2.2,None,2023-11-27 16h59.16.912538 -0800,
126,1D,goat,boat,3,0,46,46,125,201.9400272909843,,,,,,,,,,,,,,,,,,,201.93251508299727,201.9400272909843,202.93764558297698,202.93764558297698,202.93764558297698,203.23515904098167,1.3036310425959527,203.63556624998455,1.6909692505723797,203.93158750000293,2.003623167576734,206.0149479160027,4.070332209579647,206.0152978329861,None,307115,001,2023-11-27_16h59.11.329,semanticsuppression,2023.2.2,None,2023-11-27 16h59.16.912538 -0800,
154,1D,cook,book,3,0,47,47,153,206.02423562499462,,,,,,,,,,,,,,,,,,,206.0157837079896,206.02423562499462,207.02066437498434,207.02066437498434,207.02066437498434,207.31758458298282,1.3069163755862974,207.71907224997994,1.6944685005873907,208.0148904999951,2.006929250608664,210.0983356659999,4.073723875597352,210.09870579099515,None,307115,001,2023-11-27_16h59.11.329,semanticsuppression,2023.2.2,None,2023-11-27 16h59.16.912538 -0800,
137,semanticR,chef,cook,2,0,48,48,136,210.10702254099306,,,,,,,,,,,,,,,,,,,210.0991885830008,210.10702254099306,211.1046609999903,211.1046609999903,211.1046609999903,211.40233308298048,1.3102105426078197,211.8023552079976,1.6977519176143687,212.09833254097612,2.0103283346106764,214.1829906249768,4.078387250599917,214.1834157909907,None,307115,001,2023-11-27_16h59.11.329,semanticsuppression,2023.2.2,None,2023-11-27 16h59.16.912538 -0800,
226,1D,goat,boat,3,0,49,49,225,214.198286290979,,,,,,,,,,,,,,,,,,,214.1839006249793,214.198286290979,215.1815552499902,215.1815552499902,215.18680120797944,215.46724737499608,1.3006809596263338,215.88166583300335,1.6970610846183263,216.16936074997648,2.0006228756101336,218.25375833298313,,218.26518087499426,None,307115,001,2023-11-27_16h59.11.329,semanticsuppression,2023.2.2,None,2023-11-27 16h59.16.912538 -0800,
56,Different,book,chef,2,0,50,50,55,218.27602783299517,,,,,,,,,,,,,,,,,,,218.26603733299999,218.27602783299517,219.2543157079781,219.2543157079781,219.26987349998672,219.55246945799445,1.3003082506475039,219.95220337499632,1.6875973346468527,220.2482942499919,2.0003150846459903,222.3316005829838,4.066981500625843,222.3319577910006,None,307115,001,2023-11-27_16h59.11.329,semanticsuppression,2023.2.2,None,2023-11-27 16h59.16.912538 -0800,
225,semanticR,ship,boat,3,0,51,51,224,222.3392553750018,,,,,,,,,,,,,,,,,,,222.33233566599665,222.3392553750018,223.3369032079936,223.3369032079936,223.3369032079936,223.6315794159891,1.3037632506457157,224.0354955829971,1.6908907926408574,224.33160212499206,2.003704750648467,226.4150451659807,4.070429209648864,226.41537908298778,None,307115,001,2023-11-27_16h59.11.329,semanticsuppression,2023.2.2,None,2023-11-27 16h59.16.912538 -0800,
112,Different,chef,book,3,0,52,52,111,226.42347066599177,,,,,,,,,,,,,,,,,,,226.415856290987,226.42347066599177,227.42016024998156,227.42016024998156,227.42016024998156,227.71806499999366,1.3064912506670225,228.1189882909821,1.6943896256561857,228.415012249985,2.0070031256473158,230.4983816659951,4.073766417655861,230.49877233299776,None,307115,001,2023-11-27_16h59.11.329,semanticsuppression,2023.2.2,None,2023-11-27 16h59.16.912538 -0800,
222,1D,boat,goat,2,0,53,53,221,230.50715820799815,,,,,,,,,,,,,,,,,,,230.49930237498484,230.50715820799815,231.5045053329959,231.5045053329959,231.5045053329959,231.80086291598855,1.3104657096846495,232.20242570800474,1.697829875658499,232.49829254098586,2.010490459681023,234.58172420799383,4.077103209681809,234.58201620797627,None,307115,001,2023-11-27_16h59.11.329,semanticsuppression,2023.2.2,None,2023-11-27 16h59.16.912538 -0800,
22,1D,boat,goat,2,0,54,54,21,234.58633741599624,,,,,,,,,,,,,,,,,,,234.5824095409771,234.58633741599624,235.58169537500362,235.58169537500362,235.58688829099992,235.8675203329767,1.3006413346738555,236.28179870799067,1.6972034596838057,236.56884875000105,2.000835167680634,238.65234104098636,,238.6651295409829,None,307115,001,2023-11-27_16h59.11.329,semanticsuppression,2023.2.2,None,2023-11-27 16h59.16.912538 -0800,
51,Same,ship,ship,3,0,55,55,50,238.67349641598412,,,,,,,,,,,,,,,,,,,238.66559916597907,238.67349641598412,239.65465945799951,239.65465945799951,239.6703562499897,239.95258366598864,1.300261334690731,240.35208233300364,1.6874718347098678,240.64843166599167,2.0004065007087775,242.73173079098342,4.067116792692104,242.73207308299607,None,307115,001,2023-11-27_16h59.11.329,semanticsuppression,2023.2.2,None,2023-11-27 16h59.16.912538 -0800,
188,Different,ship,goat,2,0,56,56,187,242.7385639580025,,,,,,,,,,,,,,,,,,,242.7325138329761,242.7385639580025,243.7381599159853,243.7381599159853,243.7381599159853,244.03607804098283,1.303707959712483,244.43565999998827,1.6910671257064678,244.73169699998107,2.0038375006988645,246.81539095798507,4.070847792696441,246.81632583300234,None,307115,001,2023-11-27_16h59.11.329,semanticsuppression,2023.2.2,None,2023-11-27 16h59.16.912538 -0800,
99,Same,chef,chef,2,0,57,57,98,246.82652541599236,,,,,,,,,,,,,,,,,,,246.81703274999745,246.82652541599236,247.821187790978,247.821187790978,247.821187790978,248.1197179579758,1.3071202507126145,248.51933762498084,1.6947451677115168,248.81511866598157,2.0071631257305853,250.8984622079879,4.07384912573616,250.8990646250022,None,307115,001,2023-11-27_16h59.11.329,semanticsuppression,2023.2.2,None,2023-11-27 16h59.16.912538 -0800,
65,semanticR,ship,boat,3,0,58,58,64,250.90930845797993,,,,,,,,,,,,,,,,,,,250.89988724997966,250.90930845797993,251.90403649999644,251.90403649999644,251.90403649999644,252.19845637498656,1.3104719177354127,252.60236487499787,1.6977723347372375,252.8985117499833,2.010441584745422,254.9818683329795,4.077255042735487,254.98226529097883,None,307115,001,2023-11-27_16h59.11.329,semanticsuppression,2023.2.2,None,2023-11-27 16h59.16.912538 -0800,
35,Same,cook,cook,2,0,59,59,34,254.9914429159835,,,,,,,,,,,,,,,,,,,254.98282566599664,254.9914429159835,255.981796499982,255.981796499982,255.98775033297716,256.26940970798023,1.3005253347510006,256.6818073329923,1.6972047507588286,256.9698949579906,1.9999912927451078,259.0524677079811,,259.06526174998726,None,307115,001,2023-11-27_16h59.11.329,semanticsuppression,2023.2.2,None,2023-11-27 16h59.16.912538 -0800,
121,semanticR,boat,ship,3,0,60,60,120,259.0737928749877,,,,,,,,,,,,,,,,,,,259.0658263329824,259.0737928749877,260.05545383298886,260.05545383298886,260.0702528329857,260.35334162498475,1.30052066774806,260.7520570829802,1.687464417773299,261.0485057079932,2.0005706677620765,263.13184162499965,4.071129959775135,263.1360597909952,None,307115,001,2023-11-27_16h59.11.329,semanticsuppression,2023.2.2,None,2023-11-27 16h59.16.912538 -0800,
45,semanticR,ship,boat,3,0,61,61,44,263.14848216599785,,,,,,,,,,,,,,,,,,,263.1364594999759,263.14848216599785,264.1378626659862,264.1378626659862,264.1378626659862,264.4359494159871,1.303863125765929,264.83598449997953,1.6913798347814009,265.1318399999873,2.00383429278736,267.21636045799823,4.071821917779744,267.21734012500383,None,307115,001,2023-11-27_16h59.11.329,semanticsuppression,2023.2.2,None,2023-11-27 16h59.16.912538 -0800,
179,Same,chef,chef,2,0,62,62,178,267.2270814999938,,,,,,,,,,,,,,,,,,,267.2184004999872,267.2270814999938,268.22068920798483,268.22068920798483,268.22068920798483,268.51868370798184,1.3072732097934932,268.919684915978,1.6950940847746097,269.21527004099335,2.0072507097793277,271.29862033299287,4.074004334775964,271.29897287499625,None,307115,001,2023-11-27_16h59.11.329,semanticsuppression,2023.2.2,None,2023-11-27 16h59.16.912538 -0800,
50,1D,book,cook,2,0,63,63,49,271.3071743329929,,,,,,,,,,,,,,,,,,,271.299441790994,271.3071743329929,272.3041264579806,272.3041264579806,272.3041264579806,272.5985757079907,1.3105540428077802,273.00247974999365,1.6978747927933,273.2985606250004,2.010592417791486,275.3818734579836,4.077257459808607,275.3821750829811,None,307115,001,2023-11-27_16h59.11.329,semanticsuppression,2023.2.2,None,2023-11-27 16h59.16.912538 -0800,
63,Same,boat,boat,3,0,64,64,62,275.39090450000367,,,,,,,,,,,,,,,,,,,275.3826449159824,275.39090450000367,276.3819729159877,276.3819729159877,276.3875930829963,276.6674749579979,1.29944095981773,277.08189304100233,1.6972894598147832,277.36908733297605,2.0014818347990513,279.45285191599396,,279.4653917909891,None,307115,001,2023-11-27_16h59.11.329,semanticsuppression,2023.2.2,None,2023-11-27 16h59.16.912538 -0800,
94,1D,cook,book,3,0,65,65,93,279.47412441598135,,,,,,,,,,,,,,,,,,,279.46589766599936,279.47412441598135,280.45493045798503,280.45493045798503,280.47020774998236,280.75207658298314,1.3006750008207746,281.1530657080002,1.6884617508330848,281.4512777909986,2.0006201258220244,283.53201995798736,4.067408125818474,283.5323685829935,None,307115,001,2023-11-27_16h59.11.329,semanticsuppression,2023.2.2,None,2023-11-27 16h59.16.912538 -0800,
96,Different,book,chef,2,0,66,66,95,283.54013570799725,,,,,,,,,,,,,,,,,,,283.5328132499999,283.54013570799725,284.5370361660025,284.5370361660025,284.5370361660025,284.8319688749907,1.3039659178466536,285.2363382909971,1.691732959850924,285.5319661249814,2.0039987098425627,287.6159590409952,4.071438375831349,287.61692770800437,None,307115,001,2023-11-27_16h59.11.329,semanticsuppression,2023.2.2,None,2023-11-27 16h59.16.912538 -0800,
75,Same,cook,cook,2,0,67,67,74,287.6274711659935,,,,,,,,,,,,,,,,,,,287.6178920409875,287.6274711659935,288.62141970798257,288.62141970798257,288.62141970798257,288.91766033298336,1.307413042843109,289.31936129098176,1.694754167838255,289.6154216249997,2.0074474178545643,291.69951420798316,4.0748987098631915,291.6998748749902,None,307115,001,2023-11-27_16h59.11.329,semanticsuppression,2023.2.2,None,2023-11-27 16h59.16.912538 -0800,
182,1D,boat,goat,2,0,68,68,181,291.7082320409827,,,,,,,,,,,,,,,,,,,291.700321915996,291.7082320409827,292.7040292909951,292.7040292909951,292.7040292909951,293.00254029099597,1.310661292867735,293.40372141599073,1.699116709874943,293.7026000409969,2.01068825085531,295.78216574998805,4.077567959873704,295.7825377499976,None,307115,001,2023-11-27_16h59.11.329,semanticsuppression,2023.2.2,None,2023-11-27 16h59.16.912538 -0800,
57,semanticR,chef,cook,2,0,69,69,56,295.7907806249859,,,,,,,,,,,,,,,,,,,295.78298150000046,295.7907806249859,296.7820703749894,296.7820703749894,296.7870794579794,297.06776433298364,1.3008327928837389,297.4820511659782,1.697447042883141,297.76787383298506,2.001846334867878,299.85153483299655,,299.865505957976,None,307115,001,2023-11-27_16h59.11.329,semanticsuppression,2023.2.2,None,2023-11-27 16h59.16.912538 -0800,
114,1D,cook,book,3,0,70,70,113,299.8743237500021,,,,,,,,,,,,,,,,,,,299.8660209160007,299.8743237500021,300.8555119999801,300.8555119999801,300.87031874997774,301.152186583,1.3007830008864403,301.5525561249815,1.6879519178764895,301.84883974998957,2.000837750878418,303.9321129579912,4.067498875898309,303.93247337499633,None,307115,001,2023-11-27_16h59.11.329,semanticsuppression,2023.2.2,None,2023-11-27 16h59.16.912538 -0800,
140,Different,chef,book,3,0,71,71,139,303.93954883300466,,,,,,,,,,,,,,,,,,,303.9330459579942,303.93954883300466,304.93807812497835,304.93807812497835,304.93807812497835,305.2363572079921,1.3040949178976007,305.63581437498215,1.6912196259072516,305.9321122909896,2.0042642928892747,308.01682999997865,4.072279584914213,308.0177858749812,None,307115,001,2023-11-27_16h59.11.329,semanticsuppression,2023.2.2,None,2023-11-27 16h59.16.912538 -0800,
218,1D,book,cook,2,0,72,72,217,308.03218804099015,,,,,,,,,,,,,,,,,,,308.018833582988,308.03218804099015,309.02087362497696,309.02087362497696,309.02087362497696,309.3153726659948,1.307391834910959,309.71925824999926,1.6946483759093098,310.01549187497585,2.007539667916717,312.0995014999935,4.074979584926041,312.1001300829812,None,307115,001,2023-11-27_16h59.11.329,semanticsuppression,2023.2.2,None,2023-11-27 16h59.16.912538 -0800,
129,semanticR,chef,cook,2,0,73,73,128,312.1076537909976,,,,,,,,,,,,,,,,,,,312.10062383298646,312.1076537909976,313.10525870797574,313.10525870797574,313.10525870797574,313.4022770829906,1.3108225429314189,313.802496874996,1.6978902509144973,314.098834082979,2.010843084921362,316.1821225829772,4.077505959925475,316.1824447499821,None,307115,001,2023-11-27_16h59.11.329,semanticsuppression,2023.2.2,None,2023-11-27 16h59.16.912538 -0800,
232,Different,chef,book,3,0,74,74,231,316.1889041249815,,,,,,,,,,,,,,,,,,,316.18291212499025,316.1889041249815,317.1822249160032,317.1822249160032,317.18788058299106,317.4691326250031,1.2996515009435825,317.88215291599045,1.6975514599471353,318.1693559999985,2.001346750941593,320.25301666598534,,320.2656308749865,None,307115,001,2023-11-27_16h59.11.329,semanticsuppression,2023.2.2,None,2023-11-27 16h59.16.912538 -0800,
34,1D,cook,book,3,0,75,75,33,320.2721284159925,,,,,,,,,,,,,,,,,,,320.266088415985,320.2721284159925,321.25491749998764,321.25491749998764,321.26551337499404,321.5527790829947,1.300781334954081,321.9524449579767,1.6878455429396126,322.24878920798074,2.0008888349402696,324.3322514159954,4.0676345009414945,324.3325822909828,None,307115,001,2023-11-27_16h59.11.329,semanticsuppression,2023.2.2,None,2023-11-27 16h59.16.912538 -0800,
175,Same,cook,cook,2,0,76,76,174,324.33923537499504,,,,,,,,,,,,,,,,,,,324.3330385829904,324.33923537499504,325.3374942079827,325.3374942079827,325.3374942079827,325.6346969580045,1.3041831679583993,326.03610566598945,1.6915080849721562,326.33220020798035,2.004236125969328,328.4155322079896,4.070915292977588,328.41583849999006,None,307115,001,2023-11-27_16h59.11.329,semanticsuppression,2023.2.2,None,2023-11-27 16h59.16.912538 -0800,
33,semanticR,cook,chef,2,0,77,77,32,328.42270879098214,,,,,,,,,,,,,,,,,,,328.4163279159984,328.42270879098214,329.4214752499829,329.4214752499829,329.4214752499829,329.71917416597717,1.3075419179804157,330.11939758298104,1.6947915429773275,330.41547791598714,2.007623417972354,332.49895199999446,4.074340000981465,332.4993022909912,None,307115,001,2023-11-27_16h59.11.329,semanticsuppression,2023.2.2,None,2023-11-27 16h59.16.912538 -0800,
79,Same,chef,chef,2,0,78,78,78,332.506206207996,,,,,,,,,,,,,,,,,,,332.49976941599743,332.506206207996,333.49884366599144,333.49884366599144,333.5040290829784,333.78670224998496,1.3109570849919692,334.2024795829784,1.697874209989095,334.49890387497726,2.010934667981928,336.5692520829907,4.077632875996642,336.58257029097877,None,307115,001,2023-11-27_16h59.11.329,semanticsuppression,2023.2.2,None,2023-11-27 16h59.16.912538 -0800,
8,Different,ship,goat,2,0,79,79,7,336.5917199579999,,,,,,,,,,,,,,,,,,,336.5830278749927,336.5917199579999,337.5822897909966,337.5822897909966,337.5879658749909,337.8680567079864,1.3012926680094097,338.28230045799864,1.6977062509977259,338.5679778329795,2.001463460008381,340.6532270409807,,340.6668771249824,None,307115,001,2023-11-27_16h59.11.329,semanticsuppression,2023.2.2,None,2023-11-27 16h59.16.912538 -0800,
227,Same,goat,goat,2,0,80,80,226,340.67567737499485,,,,,,,,,,,,,,,,,,,340.6676889579976,340.67567737499485,341.65583541599335,341.65583541599335,341.6705502909899,341.9526929999993,1.3008186260121875,342.3526338749798,1.6880383760144468,342.64888987498125,2.0010198350064456,344.7323070830025,4.067689793009777,344.73265412499313,None,307115,001,2023-11-27_16h59.11.329,semanticsuppression,2023.2.2,None,2023-11-27 16h59.16.912538 -0800,
230,1D,book,cook,2,0,81,81,229,344.74050970800454,,,,,,,,,,,,,,,,,,,344.7331096659764,344.74050970800454,345.7374772079929,345.7374772079929,345.7374772079929,346.03232729100273,1.304354043037165,346.43629862499074,1.6917020850232802,346.7323449999967,2.0043503350170795,348.81565670800046,4.071042460040189,348.81602941598976,None,307115,001,2023-11-27_16h59.11.329,semanticsuppression,2023.2.2,None,2023-11-27 16h59.16.912538 -0800,
173,semanticR,cook,chef,2,0,82,82,172,348.8248896249861,,,,,,,,,,,,,,,,,,,348.81648966600187,348.8248896249861,349.82068095798604,349.82068095798604,349.82068095798604,350.1156411659904,1.3076383350417018,350.51983566599665,1.695232376048807,350.8156181249942,2.00764346003416,352.89891141597764,4.074295793048805,352.89933995797765,None,307115,001,2023-11-27_16h59.11.329,semanticsuppression,2023.2.2,None,2023-11-27 16h59.16.912538 -0800,
122,1D,boat,goat,2,0,83,83,121,352.90813970798627,,,,,,,,,,,,,,,,,,,352.8998308329901,352.90813970798627,353.9055237499997,353.9055237499997,353.9055237499997,354.2014529579901,1.311057460057782,354.6027984159882,1.6982022930460516,354.8990664999874,2.011085376056144,356.98271808298887,4.078172168054152,356.9836956659856,None,307115,001,2023-11-27_16h59.11.329,semanticsuppression,2023.2.2,None,2023-11-27 16h59.16.912538 -0800,
130,1D,book,cook,2,0,84,84,129,356.9939108749968,,,,,,,,,,,,,,,,,,,356.9845162909769,356.9939108749968,357.98240195799735,357.98240195799735,357.9881175409828,358.2696423329762,1.3018592930748127,358.68236516599427,1.6977609600580763,358.96858249997604,2.0000830010685604,361.05325979099143,,361.0673143749882,None,307115,001,2023-11-27_16h59.11.329,semanticsuppression,2023.2.2,None,2023-11-27 16h59.16.912538 -0800,
30,1D,book,cook,2,0,85,85,29,361.0835505409923,,,,,,,,,,,,,,,,,,,361.0677960829926,361.0835505409923,362.0556437909836,362.0556437909836,362.08232695798506,362.3531502079859,1.301016543089645,362.75266237498727,1.6880579600692727,363.049000332976,2.0011282100749668,365.1324369579961,4.067822876095306,365.13278704098775,None,307115,001,2023-11-27_16h59.11.329,semanticsuppression,2023.2.2,None,2023-11-27 16h59.16.912538 -0800,
59,Same,chef,chef,2,0,86,86,58,365.1409264160029,,,,,,,,,,,,,,,,,,,365.1332515410031,365.1409264160029,366.1379857499851,366.1379857499851,366.1379857499851,366.436140374979,1.304485501081217,366.8368405409856,1.692235960101243,367.13244020799175,2.004476835107198,369.21572495799046,4.071107835101429,369.216101582977,None,307115,001,2023-11-27_16h59.11.329,semanticsuppression,2023.2.2,None,2023-11-27 16h59.16.912538 -0800,
128,Different,ship,goat,2,0,87,87,127,369.2245680409833,,,,,,,,,,,,,,,,,,,369.21653345797677,369.2245680409833,370.22151608299464,370.22151608299464,370.22151608299464,370.51937370799715,1.3077319181174971,370.91973966598744,1.695140168099897,371.21574424998835,2.0077821681043133,373.29918499998166,4.074573460093234,373.29954991600243,None,307115,001,2023-11-27_16h59.11.329,semanticsuppression,2023.2.2,None,2023-11-27 16h59.16.912538 -0800,
110,1D,book,cook,2,0,88,88,109,373.30827108299127,,,,,,,,,,,,,,,,,,,373.30004208299215,373.30827108299127,374.3047452500032,374.3047452500032,374.3047452500032,374.60307387498324,1.3110468761296943,375.0031057909946,1.6985020851134323,375.2991598749941,2.011166501120897,377.3824601660017,4.077843168110121,377.3828679159924,None,307115,001,2023-11-27_16h59.11.329,semanticsuppression,2023.2.2,None,2023-11-27 16h59.16.912538 -0800,
105,semanticR,ship,boat,3,0,89,89,104,377.3910930409911,,,,,,,,,,,,,,,,,,,377.3833569579874,377.3910930409911,378.3824217910005,378.3824217910005,378.3875289580028,378.66802116599865,1.3000535011233296,379.08249887498096,1.6978951681230683,379.3699654999946,2.0026135851221625,381.4527664159832,,381.4658282499877,None,307115,001,2023-11-27_16h59.11.329,semanticsuppression,2023.2.2,None,2023-11-27 16h59.16.912538 -0800,
21,semanticR,boat,ship,3,0,90,90,20,381.47410579098505,,,,,,,,,,,,,,,,,,,381.4662884999998,381.47410579098505,382.45530824997695,382.45530824997695,382.4708301249775,382.75143766598194,1.3011584601481445,383.1530599159887,1.6884535851422697,383.44910712499404,2.0012532101536635,385.53257841599407,4.067960835149279,385.53291766598704,None,307115,001,2023-11-27_16h59.11.329,semanticsuppression,2023.2.2,None,2023-11-27 16h59.16.912538 -0800,
15,Same,cook,cook,2,0,91,91,14,385.5407643749786,,,,,,,,,,,,,,,,,,,385.5333768329874,385.5407643749786,386.53811824999866,386.53811824999866,386.53811824999866,386.8365222499997,1.3044250431703404,387.2373957079835,1.6928016261663288,387.5362656659854,2.004547751159407,389.61587733298074,4.07126054316177,389.6162298329873,None,307115,001,2023-11-27_16h59.11.329,semanticsuppression,2023.2.2,None,2023-11-27 16h59.16.912538 -0800,
194,1D,cook,book,3,0,92,92,193,389.6233489580045,,,,,,,,,,,,,,,,,,,389.61675837499206,389.6233489580045,390.6213813749782,390.6213813749782,390.6213813749782,390.91823229097645,1.3078894601785578,391.31974745797925,1.6951622511842288,391.6158360829868,2.007884668157203,393.6991875410022,4.074571210163413,393.6995946249808,None,307115,001,2023-11-27_16h59.11.329,semanticsuppression,2023.2.2,None,2023-11-27 16h59.16.912538 -0800,
217,semanticR,chef,cook,2,0,93,93,216,393.70840308300103,,,,,,,,,,,,,,,,,,,393.7000321249943,393.70840308300103,394.70555008298834,394.70555008298834,394.70555008298834,395.00276533298893,1.3111860431963578,395.4030195410014,1.698414460173808,395.69930183299584,2.0113087511854246,397.7826234579843,4.078006543189986,397.78298554098,None,307115,001,2023-11-27_16h59.11.329,semanticsuppression,2023.2.2,None,2023-11-27 16h59.16.912538 -0800,
185,semanticR,ship,boat,3,0,94,94,184,397.79143074998865,,,,,,,,,,,,,,,,,,,397.78343233300257,397.79143074998865,398.7825602910016,398.7825602910016,398.78812987499987,399.06833683297737,1.3001870852021966,399.48261816598824,1.6980124182009604,399.77003345798585,2.0020610431965906,401.85350658299285,,401.86599362498964,None,307115,001,2023-11-27_16h59.11.329,semanticsuppression,2023.2.2,None,2023-11-27 16h59.16.912538 -0800,
48,Different,ship,goat,2,0,95,95,47,401.87311429099645,,,,,,,,,,,,,,,,,,,401.8664956249995,401.87311429099645,402.8561171249894,402.8561171249894,402.86594316599076,403.15305354099837,1.301260001200717,403.5532069999899,1.6886152512161061,403.8492502500012,2.001271960209124,405.9325997499982,4.067986793204909,405.93292424999527,None,307115,001,2023-11-27_16h59.11.329,semanticsuppression,2023.2.2,None,2023-11-27 16h59.16.912538 -0800,
170,1D,book,cook,2,0,96,96,169,405.94205845799297,,,,,,,,,,,,,,,,,,,405.93341833297745,405.94205845799297,406.938958624989,406.938958624989,406.938958624989,407.23254799999995,1.3045537512225565,407.63645408299635,1.691848626214778,407.93270174998906,2.004688335233368,410.0159974999842,4.071384835231584,410.0163759159914,None,307115,001,2023-11-27_16h59.11.329,semanticsuppression,2023.2.2,None,2023-11-27 16h59.16.912538 -0800,
203,Same,boat,boat,3,0,97,97,202,410.02504758298164,,,,,,,,,,,,,,,,,,,410.01682612497825,410.02504758298164,411.02129324999987,411.02129324999987,411.02129324999987,411.31992379098665,1.3079623352386989,411.7207682909793,1.6961707932350691,412.0185370410036,2.007996835222002,414.0993385000038,4.074726293241838,414.0996800409921,None,307115,001,2023-11-27_16h59.11.329,semanticsuppression,2023.2.2,None,2023-11-27 16h59.16.912538 -0800,
215,Same,cook,cook,2,0,98,98,214,414.10787937499117,,,,,,,,,,,,,,,,,,,414.10015391599154,414.10787937499117,415.1050189159869,415.1050189159869,415.1050189159869,415.40310612498433,1.3113055012363475,415.80359112500446,1.698989668249851,416.0994038329809,2.011404626246076,418.1826859159919,4.07806925123441,418.1830404159846,None,307115,001,2023-11-27_16h59.11.329,semanticsuppression,2023.2.2,None,2023-11-27 16h59.16.912538 -0800,
166,1D,goat,boat,3,0,99,99,165,418.1913544999843,,,,,,,,,,,,,,,,,,,418.1834982500004,418.1913544999843,419.1826288329903,419.1826288329903,419.1884625829989,419.4695917079807,1.3008822932606563,419.8828482499812,1.698280876269564,420.1701252909843,2.0018879602721427,422.25329812499695,,422.26606366600026,None,307115,001,2023-11-27_16h59.11.329,semanticsuppression,2023.2.2,None,2023-11-27 16h59.16.912538 -0800,
113,semanticR,cook,chef,2,0,100,100,112,422.2743443749787,,,,,,,,,,,,,,,,,,,422.26653766600066,422.2743443749787,423.25602274999255,423.25602274999255,423.27105499999016,423.5520475829835,1.3014030432677828,423.95326133299386,1.6886523762659635,424.24935054098023,2.0013698762631975,426.33268270798726,4.068065335275605,426.33301141599077,None,307115,001,2023-11-27_16h59.11.329,semanticsuppression,2023.2.2,None,2023-11-27 16h59.16.912538 -0800,
91,Same,ship,ship,3,0,101,101,90,426.3412097079854,,,,,,,,,,,,,,,,,,,426.33341687498614,426.3412097079854,427.33815004100325,427.33815004100325,427.33815004100325,427.63521145799314,1.3046947932743933,428.03659899998456,1.6919978762743995,428.3326885830029,2.0047742512833793,430.4160954580002,4.071489626279799,430.4164521659841,None,307115,001,2023-11-27_16h59.11.329,semanticsuppression,2023.2.2,None,2023-11-27 16h59.16.912538 -0800,
119,Same,chef,chef,2,0,102,102,118,430.4251682909962,,,,,,,,,,,,,,,,,,,430.4170257499791,430.4251682909962,431.4218716250034,431.4218716250034,431.4218716250034,431.72002487498685,1.308075001288671,432.1203002909897,1.6957062513101846,432.41607504099375,2.008097960293526,434.49941249997937,4.074814835301368,434.4997562499775,None,307115,001,2023-11-27_16h59.11.329,semanticsuppression,2023.2.2,None,2023-11-27 16h59.16.912538 -0800,
202,1D,boat,goat,2,0,103,103,201,434.50865404098295,,,,,,,,,,,,,,,,,,,434.50020741598564,434.50865404098295,435.50535424999543,435.50535424999543,435.50535424999543,435.8031886660028,1.3113979603222106,436.2032829579839,1.6986781683226582,436.5021751659806,2.011402876320062,438.5828402499901,4.078273835300934,438.5836905409815,None,307115,001,2023-11-27_16h59.11.329,semanticsuppression,2023.2.2,None,2023-11-27 16h59.16.912538 -0800,
206,1D,goat,boat,3,0,104,104,205,438.59326624998357,,,,,,,,,,,,,,,,,,,438.5844197499973,438.59326624998357,439.5827432499791,439.5827432499791,439.5879066659836,439.8686161660007,1.300549293315271,440.2827381659881,1.6981292103300802,440.5703497499926,2.002515960339224,442.65339512500213,,442.6661793329986,None,307115,001,2023-11-27_16h59.11.329,semanticsuppression,2023.2.2,None,2023-11-27 16h59.16.912538 -0800,
47,Same,goat,goat,2,0,105,105,46,442.67298612499144,,,,,,,,,,,,,,,,,,,442.66666200000327,442.67298612499144,443.65601079098997,443.65601079098997,443.66615458298475,443.95218170798034,1.3012905433424748,444.3531672079989,1.6885623353300616,444.6494465409778,2.0014725433429703,446.7327767079987,4.0681590433523525,446.73313308297656,None,307115,001,2023-11-27_16h59.11.329,semanticsuppression,2023.2.2,None,2023-11-27 16h59.16.912538 -0800,
153,semanticR,cook,chef,2,0,106,106,152,446.74179949998506,,,,,,,,,,,,,,,,,,,446.7335951249988,446.74179949998506,447.7385197909898,447.7385197909898,447.7385197909898,448.03665291599464,1.3047828353592195,448.43671708297916,1.6921177933400031,448.7327665829798,2.004791126353666,450.8162002909812,4.071583835349884,450.81652179098455,None,307115,001,2023-11-27_16h59.11.329,semanticsuppression,2023.2.2,None,2023-11-27 16h59.16.912538 -0800,
71,Same,ship,ship,3,0,107,107,70,450.82508562499424,,,,,,,,,,,,,,,,,,,450.81697349998285,450.82508562499424,451.82247954097693,451.82247954097693,451.82247954097693,452.11986700000125,1.3082085433707107,452.51996679097647,1.6953730013628956,452.8161784579861,2.008184793376131,454.8995267909777,4.074918335361872,454.89987641599146,None,307115,001,2023-11-27_16h59.11.329,semanticsuppression,2023.2.2,None,2023-11-27 16h59.16.912538 -0800,
213,semanticR,cook,chef,2,0,108,108,212,454.90808037499664,,,,,,,,,,,,,,,,,,,454.90033033298096,454.90808037499664,455.899434166,455.899434166,455.90433812499396,456.18698933298583,1.3115147103671916,456.6033979159838,1.698795501375571,456.89951433299575,2.011496335384436,458.96956591599155,4.0783011263702065,458.9832506660023,None,307115,001,2023-11-27_16h59.11.329,semanticsuppression,2023.2.2,None,2023-11-27 16h59.16.912538 -0800,
46,1D,goat,boat,3,0,109,109,45,458.99181737500476,,,,,,,,,,,,,,,,,,,458.9837198749883,458.99181737500476,459.9828446659958,459.9828446659958,459.9881166659761,460.27024820799124,1.3019945433770772,460.68240299998433,1.6978214183764067,460.9700359159906,2.0017945853760466,463.0534551659948,,463.066723832977,None,307115,001,2023-11-27_16h59.11.329,semanticsuppression,2023.2.2,None,2023-11-27 16h59.16.912538 -0800,
90,1D,book,cook,2,0,110,110,89,463.0778244579851,,,,,,,,,,,,,,,,,,,463.0676075829833,463.0778244579851,464.05605037498754,464.05605037498754,464.07107491599163,464.35346062498866,1.301571293413872,464.7535367909877,1.6889370853896253,465.04960920798476,2.0016061264032032,467.1329111660016,4.068295668403152,467.13326566599426,None,307115,001,2023-11-27_16h59.11.329,semanticsuppression,2023.2.2,None,2023-11-27 16h59.16.912538 -0800,
125,semanticR,ship,boat,3,0,111,111,124,467.1419220829848,,,,,,,,,,,,,,,,,,,467.1337852499855,467.1419220829848,468.1393739579944,468.1393739579944,468.1393739579944,468.4353437499958,1.3048900014255196,468.83705012500286,1.6924530434189364,469.13290645799134,2.0048884604184423,471.2162171659875,4.071601793402806,471.21654449999915,None,307115,001,2023-11-27_16h59.11.329,semanticsuppression,2023.2.2,None,2023-11-27 16h59.16.912538 -0800,
11,Same,ship,ship,3,0,112,112,10,471.22336666600313,,,,,,,,,,,,,,,,,,,471.2170281659928,471.22336666600313,472.2216617499944,472.2216617499944,472.2216617499944,472.51616874997853,1.3082077514263801,472.92054354099673,1.6959575014188886,473.2161971250025,2.0083126264216844,475.29961449999246,4.075006626429968,475.29995841599884,None,307115,001,2023-11-27_16h59.11.329,semanticsuppression,2023.2.2,None,2023-11-27 16h59.16.912538 -0800,
201,semanticR,boat,ship,3,0,113,113,200,475.30664462500135,,,,,,,,,,,,,,,,,,,475.30045491599594,475.30664462500135,476.30490608297987,476.30490608297987,476.30490608297987,476.5994949579763,1.2993767104344442,477.00330308298,1.6949163354292978,477.2996291249874,1.9992568764428142,479.38293187497766,4.078321876440896,479.383234790992,None,307115,001,2023-11-27_16h59.11.329,semanticsuppression,2023.2.2,None,2023-11-27 16h59.16.912538 -0800,
231,Same,ship,ship,3,0,114,114,230,479.3896673749841,,,,,,,,,,,,,,,,,,,479.3836952080019,479.3896673749841,480.3829424580035,480.3829424580035,480.3881699999911,480.66894545799005,1.3023465014412068,481.08295354098664,1.698375710460823,481.3701324579888,2.0021546684438363,483.4520217079844,,483.46643833298003,None,307115,001,2023-11-27_16h59.11.329,semanticsuppression,2023.2.2,None,2023-11-27 16h59.16.912538 -0800,
199,Same,chef,chef,2,0,115,115,198,483.4754129999783,,,,,,,,,,,,,,,,,,,483.46690979099367,483.4754129999783,484.4562184159877,484.4562184159877,484.4712248329888,484.7519067910034,1.301587585476227,485.15346383297583,1.6888596264761873,485.44955333299004,2.001691168465186,487.5330440829857,4.068437168461969,487.5333952079818,None,307115,001,2023-11-27_16h59.11.329,semanticsuppression,2023.2.2,None,2023-11-27 16h59.16.912538 -0800,
54,1D,cook,book,3,0,116,116,53,487.5418614159862,,,,,,,,,,,,,,,,,,,487.5338662909926,487.5418614159862,488.53898991597816,488.53898991597816,488.53898991597816,488.8367421659932,1.3049787934869528,489.23689825000474,1.6922984604898375,489.5330275829765,2.0050282514712308,491.6163089159818,4.07169462647289,491.6166706249933,None,307115,001,2023-11-27_16h59.11.329,semanticsuppression,2023.2.2,None,2023-11-27 16h59.16.912538 -0800,
148,Different,ship,goat,2,0,117,117,147,491.624884416,,,,,,,,,,,,,,,,,,,491.61711129097966,491.624884416,492.6220302080037,492.6220302080037,492.6220302080037,492.9163116659911,1.3083071264845785,493.32018762498046,1.6955842934839893,493.61646454100264,2.0084362934867386,495.69972970799427,4.075113168481039,495.700052915985,None,307115,001,2023-11-27_16h59.11.329,semanticsuppression,2023.2.2,None,2023-11-27 16h59.16.912538 -0800,
60,Different,chef,book,3,0,118,118,59,495.70812466598,,,,,,,,,,,,,,,,,,,495.70054925000295,495.70812466598,496.70620499999495,496.70620499999495,496.70620499999495,497.0035611659987,1.3117221264983527,497.4036492079904,1.6990467515133787,497.69981887500035,2.011781418492319,499.7837040409795,4.079089001490502,499.78405066599953,None,307115,001,2023-11-27_16h59.11.329,semanticsuppression,2023.2.2,None,2023-11-27 16h59.16.912538 -0800,
220,Different,chef,book,3,0,119,119,219,499.78865249999217,,,,,,,,,,,,,,,,,,,499.78452708298573,499.78865249999217,500.7830735409807,500.7830735409807,500.78854879099526,501.07055229099933,1.302084418508457,501.483073624986,1.6984762935317121,501.76871933299117,2.0010790015221573,503.85394604099565,,503.86703483297606,None,307115,001,2023-11-27_16h59.11.329,semanticsuppression,2023.2.2,None,2023-11-27 16h59.16.912538 -0800,
28,Different,ship,goat,2,0,120,120,27,503.87783095799387,,,,,,,,,,,,,,,,,,,503.86790445799124,503.87783095799387,504.8561383749766,504.8561383749766,504.87181383298594,505.15356504099327,1.301699751522392,505.55354924997664,1.6889471685281023,505.84966954099946,2.0018120015156455,507.9331533329969,4.0685362515214365,507.9334943330032,None,307115,001,2023-11-27_16h59.11.329,semanticsuppression,2023.2.2,None,2023-11-27 16h59.16.912538 -0800,
210,1D,book,cook,2,0,121,121,209,507.9419554579945,,,,,,,,,,,,,,,,,,,507.9339690829802,507.9419554579945,508.93941754099797,508.93941754099797,508.93941754099797,509.23743041598937,1.3051414185320027,509.6368336250016,1.6922290435468312,509.93312474997947,2.005156543542398,512.0254909579817,4.071838418545667,512.016807707987,None,307115,001,2023-11-27_16h59.11.329,semanticsuppression,2023.2.2,None,2023-11-27 16h59.16.912538 -0800,
108,Different,ship,goat,2,0,122,122,107,512.0254909579817,,,,,,,,,,,,,,,,,,,512.0172615829797,512.0254909579817,513.0221747079922,513.0221747079922,513.0221747079922,513.3205057909945,1.3084243765624706,513.7207645409799,1.6961685015412513,514.0164025829872,2.0085787515563425,516.1006630829943,4.076694043556927,516.102403790981,None,307115,001,2023-11-27_16h59.11.329,semanticsuppression,2023.2.2,None,2023-11-27 16h59.16.912538 -0800,
136,Different,book,chef,2,0,123,123,135,516.1132629579806,,,,,,,,,,,,,,,,,,,516.1035144579946,516.1132629579806,517.1051752079802,517.1051752079802,517.1051752079802,517.4037407079886,1.2991209605825134,517.8037663750001,1.6951388765592128,518.0998424999998,1.9991243355616461,520.1833332910028,4.078772960579954,520.1846632499946,None,307115,001,2023-11-27_16h59.11.329,semanticsuppression,2023.2.2,None,2023-11-27 16h59.16.912538 -0800,
13,semanticR,cook,chef,2,0,124,124,12,520.1931187080045,,,,,,,,,,,,,,,,,,,520.1855043749965,520.1931187080045,521.1831684579956,521.1831684579956,521.1887181659986,521.4711289999832,1.302159126586048,521.8831970409956,1.6985961685713846,522.1690533749934,2.000676876574289,524.2536812500039,,524.2666456250008,None,307115,001,2023-11-27_16h59.11.329,semanticsuppression,2023.2.2,None,2023-11-27 16h59.16.912538 -0800,
95,Same,cook,cook,2,0,125,125,94,524.2739231250016,,,,,,,,,,,,,,,,,,,524.2671525829937,524.2739231250016,525.2560205409827,525.2560205409827,525.2714922500018,525.5538391659793,1.3018239185912535,525.9539488329901,1.6893548356019892,526.2498074999894,2.0019215435895603,528.3332449159934,4.0686244186072145,528.3335118329851,None,307115,001,2023-11-27_16h59.11.329,semanticsuppression,2023.2.2,None,2023-11-27 16h59.16.912538 -0800,
85,semanticR,ship,boat,3,0,126,126,84,528.3416662079981,,,,,,,,,,,,,,,,,,,528.333897332981,528.3416662079981,529.3386385409976,529.3386385409976,529.3386385409976,529.6355078749766,1.3052610855957028,530.0371699579991,1.692564043594757,530.3332548329781,2.0052369605982676,532.4165566249867,4.071936751599424,532.4168282079918,None,307115,001,2023-11-27_16h59.11.329,semanticsuppression,2023.2.2,None,2023-11-27 16h59.16.912538 -0800,
109,semanticR,chef,cook,2,0,127,127,108,532.4246877080004,,,,,,,,,,,,,,,,,,,532.4172253749857,532.4246877080004,533.4223142909759,533.4223142909759,533.4223142909759,533.7200064579956,1.3085624606173951,534.1204552080017,1.69585037662182,534.4164956659952,2.008553335617762,536.5001202079875,4.075591210625134,536.501171040989,None,307115,001,2023-11-27_16h59.11.329,semanticsuppression,2023.2.2,None,2023-11-27 16h59.16.912538 -0800,
207,Same,goat,goat,2,0,128,128,206,536.5108710409841,,,,,,,,,,,,,,,,,,,536.5019302080036,536.5108710409841,537.506285874988,537.506285874988,537.506285874988,537.8024250829767,1.3119496266299393,538.2043578749872,1.6997560856398195,538.5026230409858,2.0120015436259564,540.5832660000015,4.0786497936351225,540.5837174159824,None,307115,001,2023-11-27_16h59.11.329,semanticsuppression,2023.2.2,None,2023-11-27 16h59.16.912538 -0800,
64,Different,goat,ship,3,0,129,129,63,540.5900588749791,,,,,,,,,,,,,,,,,,,540.584173374984,540.5900588749791,541.5828028329997,541.5828028329997,541.5867164579977,541.8692374159873,1.3021002106543165,542.2832742499886,1.6986689186596777,542.5689977909788,2.0010744186583906,544.65357699999,,544.6671412079886,None,307115,001,2023-11-27_16h59.11.329,semanticsuppression,2023.2.2,None,2023-11-27 16h59.16.912538 -0800,
55,Same,cook,cook,2,0,130,130,54,544.676028832997,,,,,,,,,,,,,,,,,,,544.6676360409765,544.676028832997,545.6565632080019,545.6565632080019,545.6715747499838,545.9548853749875,1.301700793672353,546.3538210410043,1.6892243356560357,546.6499327499769,2.0021064186585136,548.733362540981,4.068746960663702,548.7337172499974,None,307115,001,2023-11-27_16h59.11.329,semanticsuppression,2023.2.2,None,2023-11-27 16h59.16.912538 -0800,
149,semanticR,chef,cook,2,0,131,131,148,548.7403936659975,,,,,,,,,,,,,,,,,,,548.7341785409953,548.7403936659975,549.7389204159845,549.7389204159845,549.7389204159845,550.0355552079855,1.3053820016793907,550.437070999993,1.6924672516761348,550.7333426660043,2.0053647516760975,552.8174519579916,4.0728442936670035,552.8178616249934,None,307115,001,2023-11-27_16h59.11.329,semanticsuppression,2023.2.2,None,2023-11-27 16h59.16.912538 -0800,
2,1D,boat,goat,2,0,132,132,1,552.8266223749961,,,,,,,,,,,,,,,,,,,552.8183224999812,552.8266223749961,553.822646457993,553.822646457993,553.822646457993,554.120588040998,1.3085878766723908,554.5207930409815,1.6961980436753947,554.819516040996,2.0087911686860025,556.899964124983,4.07539821069804,556.9007461250003,None,307115,001,2023-11-27_16h59.11.329,semanticsuppression,2023.2.2,None,2023-11-27 16h59.16.912538 -0800,
80,Different,chef,book,3,0,133,133,79,556.9110731249966,,,,,,,,,,,,,,,,,,,556.9014729159826,556.9110731249966,557.9063589579891,557.9063589579891,557.9063589579891,558.2048642080044,1.300246501690708,558.5999632499879,1.6953551686892752,558.8871507500007,2.012075251695933,560.9834057079861,4.078791460691718,560.9837416249793,None,307115,001,2023-11-27_16h59.11.329,semanticsuppression,2023.2.2,None,2023-11-27 16h59.16.912538 -0800,
152,Different,chef,book,3,0,134,134,151,560.9881952909927,,,,,,,,,,,,,,,,,,,560.9842217910045,560.9881952909927,561.9832909159886,561.9832909159886,561.9891419999767,562.2701874999912,1.3025880437053274,562.6833839159808,1.698779751721304,562.9703702080005,2.0011356687173247,565.0545462909795,,565.0671304159914,None,307115,001,2023-11-27_16h59.11.329,semanticsuppression,2023.2.2,None,2023-11-27 16h59.16.912538 -0800,
4,Different,goat,ship,3,0,135,135,3,565.0773015829909,,,,,,,,,,,,,,,,,,,565.0679777079786,565.0773015829909,566.0592104579846,566.0592104579846,566.0712685409817,566.3541497910046,1.3020488357287832,566.754175124981,1.689583293715259,567.050040415983,2.0020407937117852,569.1428030829993,4.068867043708451,569.1338637909794,None,307115,001,2023-11-27_16h59.11.329,semanticsuppression,2023.2.2,None,2023-11-27 16h59.16.912538 -0800,
134,1D,cook,book,3,0,136,136,133,569.1428030829993,,,,,,,,,,,,,,,,,,,569.1344084579905,569.1428030829993,570.1399377079797,570.1399377079797,570.1399377079797,570.4373466249963,1.3054928767378442,570.8373528749798,1.692742960731266,571.1334548750019,2.0054342517396435,573.2176725409809,4.073143126734067,573.2186207909836,None,307115,001,2023-11-27_16h59.11.329,semanticsuppression,2023.2.2,None,2023-11-27 16h59.16.912538 -0800,
127,Same,goat,goat,2,0,137,137,126,573.2290331249824,,,,,,,,,,,,,,,,,,,573.2194868329971,573.2290331249824,574.2215402909787,574.2215402909787,574.2215402909787,574.5167533329804,1.3088089187513106,574.9207076249877,1.696127501752926,575.2167693749943,2.0087754607375246,577.3002049999777,4.0755907107377425,577.3005578329903,None,307115,001,2023-11-27_16h59.11.329,semanticsuppression,2023.2.2,None,2023-11-27 16h59.16.912538 -0800,
39,Same,chef,chef,2,0,138,138,38,577.3082319579844,,,,,,,,,,,,,,,,,,,577.3010279999871,577.3082319579844,578.3062437500048,578.3062437500048,578.3062437500048,578.6022954159998,1.312095168774249,579.0044512079912,1.6998577937483788,579.3000563749811,1.999084126757225,581.3835112910019,4.078904001769843,581.3838528329798,None,307115,001,2023-11-27_16h59.11.329,semanticsuppression,2023.2.2,None,2023-11-27 16h59.16.912538 -0800,
184,Different,goat,ship,3,0,139,139,183,581.3919458749879,,,,,,,,,,,,,,,,,,,581.3844190829841,581.3919458749879,582.3833938329772,582.3833938329772,582.388443874981,582.6703702079831,1.301238793763332,583.0836187909881,1.699025001784321,583.3709220409801,2.0029289607773535,585.4526562079845,,585.4668886659783,None,307115,001,2023-11-27_16h59.11.329,semanticsuppression,2023.2.2,None,2023-11-27 16h59.16.912538 -0800,
165,semanticR,ship,boat,3,0,140,140,164,585.475386999984,,,,,,,,,,,,,,,,,,,585.4673369579832,585.475386999984,586.4563734999974,586.4563734999974,586.471861500002,586.7538414579758,1.3021600857900921,587.154086333001,1.6894840437744278,587.450145040988,2.002139043790521,589.5334555000009,4.0688381267827936,589.5338045409881,None,307115,001,2023-11-27_16h59.11.329,semanticsuppression,2023.2.2,None,2023-11-27 16h59.16.912538 -0800,
176,Different,book,chef,2,0,141,141,175,589.5422564159962,,,,,,,,,,,,,,,,,,,589.5342851659807,589.5422564159962,590.5389778329991,590.5389778329991,590.5389778329991,590.8334599160007,1.3055088357941713,591.2373354159936,1.692746835789876,591.5334772909991,2.0055826267926022,593.6169182909944,4.0723044608021155,593.6172627499909,None,307115,001,2023-11-27_16h59.11.329,semanticsuppression,2023.2.2,None,2023-11-27 16h59.16.912538 -0800,
100,Different,chef,book,3,0,142,142,99,593.6255100829876,,,,,,,,,,,,,,,,,,,593.6177124579845,593.6255100829876,594.6225161659822,594.6225161659822,594.6225161659822,594.9196791659924,1.308905085810693,595.3208951659908,1.6962910018046387,595.6168792079843,2.008887085801689,597.7003356659843,4.0757950018160045,597.7012191659887,None,307115,001,2023-11-27_16h59.11.329,semanticsuppression,2023.2.2,None,2023-11-27 16h59.16.912538 -0800,
102,1D,boat,goat,2,0,143,143,101,597.7103728749789,,,,,,,,,,,,,,,,,,,597.702260207996,597.7103728749789,598.7002255829866,598.7002255829866,598.7059810829815,598.9876840829966,1.3005219608312473,599.4002115000039,1.6956236688129138,599.687413082982,1.999185293825576,601.770861500001,4.078993710834766,601.7839690409892,None,307115,001,2023-11-27_16h59.11.329,semanticsuppression,2023.2.2,None,2023-11-27 16h59.16.912538 -0800,
61,semanticR,boat,ship,3,0,144,144,60,601.7915685409971,,,,,,,,,,,,,,,,,,,601.7844585409912,601.7915685409971,602.7835309999937,602.7835309999937,602.7892360829865,603.0704693330044,1.3012305438460317,603.4836566250015,1.699056126846699,603.7693909159862,1.9990028358297423,605.8669277080044,4.066820126841776,605.851778124983,None,307115,001,2023-11-27_16h59.11.329,semanticsuppression,2023.2.2,None,2023-11-27 16h59.16.912538 -0800,
216,Different,book,chef,2,0,145,145,215,605.8669277080044,,,,,,,,,,,,,,,,,,,605.8522022499819,605.8669277080044,606.8556654579879,606.8556654579879,606.8556654579879,607.1543662909826,1.3022645438613836,607.5542519579758,1.6896530438389163,607.8503063749813,2.0022797518467996,609.9335934160044,4.06897379385191,609.9338790409965,None,307115,001,2023-11-27_16h59.11.329,semanticsuppression,2023.2.2,None,2023-11-27 16h59.16.912538 -0800,
17,semanticR,chef,cook,2,0,146,146,16,609.9417369159928,,,,,,,,,,,,,,,,,,,609.9343370829883,609.9417369159928,610.9393129159871,610.9393129159871,610.9393129159871,611.2371982909972,1.3056122108537238,611.6374594160006,1.6928546688577626,611.9337340409984,2.005735460872529,614.0170085409773,4.072393710870529,614.0173481660022,None,307115,001,2023-11-27_16h59.11.329,semanticsuppression,2023.2.2,None,2023-11-27 16h59.16.912538 -0800,
198,1D,book,cook,2,0,147,147,197,614.024254791002,,,,,,,,,,,,,,,,,,,614.0178241659887,614.024254791002,615.023455040995,615.023455040995,615.023455040995,615.3209102909896,1.3089687938627321,615.7207802909834,1.6961835018882994,616.0169834159897,2.0090152938792016,618.1003201249987,4.0757050018874,618.1006609579781,None,307115,001,2023-11-27_16h59.11.329,semanticsuppression,2023.2.2,None,2023-11-27 16h59.16.912538 -0800,
84,Different,goat,ship,3,0,148,148,83,618.1095745829807,,,,,,,,,,,,,,,,,,,618.101160124992,618.1095745829807,619.1003369999817,619.1003369999817,619.1060643329984,619.3878214159922,1.299778751883423,619.8003243749845,1.6957480858836789,620.0873506249918,1.9995660018757917,622.1705779579934,4.079440543893725,622.1849961249973,None,307115,001,2023-11-27_16h59.11.329,semanticsuppression,2023.2.2,None,2023-11-27 16h59.16.912538 -0800,
72,Different,chef,book,3,0,149,149,71,622.1957982909807,,,,,,,,,,,,,,,,,,,622.1858356659941,622.1957982909807,623.17339695798,623.17339695798,623.1887062079913,623.4703570409911,1.3014541688899044,623.8711487499822,1.699070210888749,624.1670129580016,1.9991099608887453,626.2504036659957,4.065797043906059,626.2507915000024,None,307115,001,2023-11-27_16h59.11.329,semanticsuppression,2023.2.2,None,2023-11-27 16h59.16.912538 -0800,
219,Same,chef,chef,2,0,150,150,218,626.2576429159963,,,,,,,,,,,,,,,,,,,626.251313832996,626.2576429159963,627.2560086659796,627.2560086659796,627.2560086659796,627.5542862909788,1.3023718769254629,627.9541174159967,1.6895178769191261,628.2503586660023,2.0024058359267656,630.3337237079977,4.069109335920075,630.3340402079921,None,307115,001,2023-11-27_16h59.11.329,semanticsuppression,2023.2.2,None,2023-11-27 16h59.16.912538 -0800,
172,Different,chef,book,3,0,151,151,171,630.3407207909913,,,,,,,,,,,,,,,,,,,630.3344855409814,630.3407207909913,631.3392122910009,631.3392122910009,631.3392122910009,631.6361462079803,1.3057627109228633,632.038016290986,1.693415251938859,632.3337105829851,2.005704626935767,634.4171386249945,4.072523751936387,634.4174807499803,None,307115,001,2023-11-27_16h59.11.329,semanticsuppression,2023.2.2,None,2023-11-27 16h59.16.912538 -0800,
150,1D,book,cook,2,0,152,152,149,634.4259906249936,,,,,,,,,,,,,,,,,,,634.4179301249969,634.4259906249936,635.4224792500027,635.4224792500027,635.4224792500027,635.7169656250044,1.3091248359414749,636.1210494999832,1.6964525859511923,636.4170660829986,2.009167418931611,638.5004467499966,4.0758406689274125,638.5008016249922,None,307115,001,2023-11-27_16h59.11.329,semanticsuppression,2023.2.2,None,2023-11-27 16h59.16.912538 -0800,
120,Different,chef,book,3,0,153,153,119,638.5095004999894,,,,,,,,,,,,,,,,,,,638.5013317909907,638.5095004999894,639.5004668750043,639.5004668750043,639.5059602909896,639.7874665829877,1.312456168961944,640.2043304579856,1.6997262519435026,640.5004064159875,2.0124197519617155,642.5696011249966,4.07934962696163,642.584646540985,None,307115,001,2023-11-27_16h59.11.329,semanticsuppression,2023.2.2,None,2023-11-27 16h59.16.912538 -0800,
197,semanticR,chef,cook,2,0,154,154,196,642.5936015000043,,,,,,,,,,,,,,,,,,,642.5855487499794,642.5936015000043,643.5744181659829,643.5744181659829,643.5892270829936,643.8696706659975,1.2990788769675419,644.2709932079888,1.6863871689711232,644.5671023329778,1.999212335969787,646.6505236249941,4.0659089609689545,646.650838624977,None,307115,001,2023-11-27_16h59.11.329,semanticsuppression,2023.2.2,None,2023-11-27 16h59.16.912538 -0800,
151,Same,ship,ship,3,0,155,155,150,646.6592293749854,,,,,,,,,,,,,,,,,,,646.6513130829844,646.6592293749854,647.6569562499935,647.6569562499935,647.6569562499935,647.9543699999922,1.3023173359688371,648.3544600000023,1.6898546689772047,648.6505064159865,2.002518251974834,650.7338295409863,4.0692246689868625,650.7341905829962,None,307115,001,2023-11-27_16h59.11.329,semanticsuppression,2023.2.2,None,2023-11-27 16h59.16.912538 -0800,
86,1D,goat,boat,3,0,156,156,85,650.7424253749778,,,,,,,,,,,,,,,,,,,650.7347047499788,650.7424253749778,651.7402375829988,651.7402375829988,651.7402375829988,652.0376688329852,1.3057997940049972,652.4374852909823,1.692891251994297,652.7338037079899,2.005847544001881,654.8172332079848,4.07261554399156,654.8176057079982,None,307115,001,2023-11-27_16h59.11.329,semanticsuppression,2023.2.2,None,2023-11-27 16h59.16.912538 -0800,
83,Same,boat,boat,3,0,157,157,82,654.8245218749798,,,,,,,,,,,,,,,,,,,654.818088540982,654.8245218749798,655.8230618749803,655.8230618749803,655.8230618749803,656.120536582981,1.3091329190065153,656.5207974999794,1.6962011689902283,656.8172395000001,2.0092140439955983,658.9005463749927,4.075935336004477,658.9009759159817,None,307115,001,2023-11-27_16h59.11.329,semanticsuppression,2023.2.2,None,2023-11-27 16h59.16.912538 -0800,
62,1D,boat,goat,2,0,158,158,61,658.9082447499968,,,,,,,,,,,,,,,,,,,658.901536749996,658.9082447499968,659.9004769579915,659.9004769579915,659.9063135829929,660.1867709579819,1.3125347110035364,660.6004728749976,1.6991458360280376,660.887780582998,2.0125715020112693,662.9717172079836,4.07930550200399,662.9847305000003,None,307115,001,2023-11-27_16h59.11.329,semanticsuppression,2023.2.2,None,2023-11-27 16h59.16.912538 -0800,
132,Different,chef,book,3,0,159,159,131,662.9944190410024,,,,,,,,,,,,,,,,,,,662.985412332986,662.9944190410024,663.9732443749963,663.9732443749963,663.9891129579919,664.271281082998,1.2991827520309016,664.6711166659952,1.686512461019447,664.966991082998,1.9991932110278867,667.0504874579783,4.0658683360379655,667.0507974579814,None,307115,001,2023-11-27_16h59.11.329,semanticsuppression,2023.2.2,None,2023-11-27 16h59.16.912538 -0800,
6,1D,goat,boat,3,0,160,160,5,667.0590523749997,,,,,,,,,,,,,,,,,,,667.0512615409971,667.0590523749997,668.0562714579864,668.0562714579864,668.0562714579864,668.3545345829916,1.3026101270515937,668.7543669159932,1.6897653770283796,669.0506848749937,2.0026251270319335,671.1339207909768,4.06930358603131,671.1343197909882,None,307115,001,2023-11-27_16h59.11.329,semanticsuppression,2023.2.2,None,2023-11-27 16h59.16.912538 -0800,
141,semanticR,boat,ship,3,0,161,161,140,671.1425581660005,,,,,,,,,,,,,,,,,,,671.1347638749867,671.1425581660005,672.1399743749935,672.1399743749935,672.1399743749935,672.4377941659768,1.3059164610458538,672.8380564999825,1.693447627068963,673.1339376249816,2.0059610440512188,675.2276044579921,4.073617669055238,675.218633957993,None,307115,001,2023-11-27_16h59.11.329,semanticsuppression,2023.2.2,None,2023-11-27 16h59.16.912538 -0800,
9,semanticR,chef,cook,2,0,162,162,8,675.2276044579921,,,,,,,,,,,,,,,,,,,675.2191553750017,675.2276044579921,676.2227620829944,676.2227620829944,676.2227620829944,676.5173119159881,1.3094987110816874,676.9209028329933,1.709289044054458,677.2172591249982,2.0093233360676095,679.3006652909971,4.076053169061197,679.3011002499843,None,307115,001,2023-11-27_16h59.11.329,semanticsuppression,2023.2.2,None,2023-11-27 16h59.16.912538 -0800,
212,Different,chef,book,3,0,163,163,211,679.3086238749966,,,,,,,,,,,,,,,,,,,679.3016587909951,679.3086238749966,680.3005915829854,680.3005915829854,680.3062596249802,680.5881672499818,1.3003785860782955,681.0046366250026,1.6960553360695485,681.3006515409797,1.9998447110701818,683.3712150829961,4.0793311690795235,683.3842632909946,None,307115,001,2023-11-27_16h59.11.329,semanticsuppression,2023.2.2,None,2023-11-27 16h59.16.912538 -0800,
69,semanticR,chef,cook,2,0,164,164,68,683.3907163749973,,,,,,,,,,,,,,,,,,,683.3847282909846,683.3907163749973,684.3740272079885,684.3740272079885,684.3840067909914,684.6712115829869,1.2993049610813614,685.0712402499921,1.6866371690994129,685.3673131660034,1.999290627107257,687.4506269999838,4.066020961094182,687.45102399998,None,307115,001,2023-11-27_16h59.11.329,semanticsuppression,2023.2.2,None,2023-11-27 16h59.16.912538 -0800,
196,Different,book,chef,2,0,165,165,195,687.4596574159805,,,,,,,,,,,,,,,,,,,687.4515592499811,687.4596574159805,688.456321582984,688.456321582984,688.456321582984,688.7532628329936,1.3026396690984257,689.1545497079787,1.6899451271165162,689.4506097909762,2.002761544106761,691.5340254579787,4.069409127114341,691.5343839999987,None,307115,001,2023-11-27_16h59.11.329,semanticsuppression,2023.2.2,None,2023-11-27 16h59.16.912538 -0800,
133,semanticR,cook,chef,2,0,166,166,132,691.5413119579898,,,,,,,,,,,,,,,,,,,691.5348386249971,691.5413119579898,692.5402766249899,692.5402766249899,692.5402766249899,692.8367475830019,1.3061043361085467,693.2380097080022,1.6934200861142017,693.534012832999,2.0060557941324078,695.6173553330009,4.072739669121802,695.6177294160007,None,307115,001,2023-11-27_16h59.11.329,semanticsuppression,2023.2.2,None,2023-11-27 16h59.16.912538 -0800,
189,semanticR,chef,cook,2,0,167,167,188,695.6263917909819,,,,,,,,,,,,,,,,,,,695.618183249986,695.6263917909819,696.6230949999881,696.6230949999881,696.6230949999881,696.9197046250047,1.3093496271176264,697.3216972909868,1.6970932521217037,697.6173710830044,2.0094442111440003,699.7007659160008,4.076149836124387,699.7012491659843,None,307115,001,2023-11-27_16h59.11.329,semanticsuppression,2023.2.2,None,2023-11-27 16h59.16.912538 -0800,
221,semanticR,boat,ship,3,0,168,168,220,699.7102966659877,,,,,,,,,,,,,,,,,,,699.7017492079758,699.7102966659877,700.700689958001,700.700689958001,700.7065647909767,700.9876715409919,1.3127720861521084,701.4006659159786,1.6996084611455444,701.6862617080042,2.0127720441378187,703.7699929160008,4.079619336145697,703.7851412079763,None,307115,001,2023-11-27_16h59.11.329,semanticsuppression,2023.2.2,None,2023-11-27 16h59.16.912538 -0800,
93,semanticR,cook,chef,2,0,169,169,92,703.7949358749902,,,,,,,,,,,,,,,,,,,703.7859732910001,703.7949358749902,704.7736807079928,704.7736807079928,704.7895868749765,705.0715067909914,1.2994147521676496,705.4718327909941,1.6872315861692186,705.7713242909813,1.999409044161439,707.8509139999805,4.066301586164627,707.8512931249861,None,307115,001,2023-11-27_16h59.11.329,semanticsuppression,2023.2.2,None,2023-11-27 16h59.16.912538 -0800,
209,semanticR,chef,cook,2,0,170,170,208,707.8602138329879,,,,,,,,,,,,,,,,,,,707.8518233749783,707.8602138329879,708.8571634159889,708.8571634159889,708.8571634159889,709.1543259159953,1.3027447521744762,709.5548277909984,1.6902232111606281,709.8507697079913,2.0028784191817977,711.934138749988,4.0695185441582,711.9344326249848,None,307115,001,2023-11-27_16h59.11.329,semanticsuppression,2023.2.2,None,2023-11-27 16h59.16.912538 -0800,
27,Same,goat,goat,2,0,171,171,26,711.942329499987,,,,,,,,,,,,,,,,,,,711.9348467910022,711.942329499987,712.9401758750028,712.9401758750028,712.9401758750028,713.2378805000044,1.3061564191884827,713.6379552079889,1.693354419170646,713.9341762079857,2.0062243361899164,716.0175256659859,4.072958169184858,716.0184325829905,None,307115,001,2023-11-27_16h59.11.329,semanticsuppression,2023.2.2,None,2023-11-27 16h59.16.912538 -0800,
58,1D,book,cook,2,0,172,172,57,716.0285504579952,,,,,,,,,,,,,,,,,,,716.0191343329789,716.0285504579952,717.0232216659933,717.0232216659933,717.0232216659933,717.32181283299,1.3094570862012915,717.7217789159913,1.6971845861990005,718.0174630830006,2.0094456691876985,720.1008943329798,4.076290336204693,720.1012665409944,None,307115,001,2023-11-27_16h59.11.329,semanticsuppression,2023.2.2,None,2023-11-27 16h59.16.912538 -0800,
147,Same,goat,goat,2,0,173,173,146,720.1111330830026,,,,,,,,,,,,,,,,,,,720.1018311659864,720.1111330830026,721.1008218749776,721.1008218749776,721.106678540993,721.3882061250042,1.2999801692203619,721.8008039159758,1.6962195442174561,722.0865573749761,2.000423836201662,724.1711957909865,4.079561544203898,724.1845075000019,None,307115,001,2023-11-27_16h59.11.329,semanticsuppression,2023.2.2,None,2023-11-27 16h59.16.912538 -0800,
107,Same,goat,goat,2,0,174,174,106,724.1889531659835,,,,,,,,,,,,,,,,,,,724.1849800409982,724.1889531659835,725.1752159579773,725.1752159579773,725.184236540983,725.4696969159995,1.299558794213226,725.8715612909873,1.6869770862103906,726.1675539579883,1.9996458362147678,728.2513213749917,4.066774294216884,728.2523720829922,None,307115,001,2023-11-27_16h59.11.329,semanticsuppression,2023.2.2,None,2023-11-27 16h59.16.912538 -0800,
200,Different,chef,book,3,0,175,175,199,728.2628339999937,,,,,,,,,,,,,,,,,,,728.2531751249917,728.2628339999937,729.2565721249848,729.2565721249848,729.2565721249848,729.5545166659867,1.302848169230856,729.9551903749816,1.6905862112471368,730.250869874988,2.0029607112228405,732.3342695829924,4.0696536272298545,732.3345957499987,None,307115,001,2023-11-27_16h59.11.329,semanticsuppression,2023.2.2,None,2023-11-27 16h59.16.912538 -0800,
87,Same,goat,goat,2,0,176,176,86,732.3429362500028,,,,,,,,,,,,,,,,,,,732.3350937079813,732.3429362500028,733.3403257079772,733.3403257079772,733.3403257079772,733.6379446659994,1.3063165022467729,734.0380518329912,1.6934524192474782,734.3342648749822,2.006273127248278,736.4175882079871,4.072968961234437,736.4178787909914,None,307115,001,2023-11-27_16h59.11.329,semanticsuppression,2023.2.2,None,2023-11-27 16h59.16.912538 -0800,
16,Different,book,chef,2,0,177,177,15,736.425924332987,,,,,,,,,,,,,,,,,,,736.4183039579948,736.425924332987,737.422861375002,737.422861375002,737.422861375002,737.7175784999854,1.3095967942499556,738.1215045409917,1.6969103772717062,738.4175616659923,2.0095701272657607,740.5009186249808,4.076301169261569,740.501238249999,None,307115,001,2023-11-27_16h59.11.329,semanticsuppression,2023.2.2,None,2023-11-27 16h59.16.912538 -0800,
40,Different,chef,book,3,0,178,178,39,740.5094255409786,,,,,,,,,,,,,,,,,,,740.5016977499763,740.5094255409786,741.5009152079874,741.5009152079874,741.5061367499875,741.789413749997,1.2998930022586137,742.2009324999817,1.6963300442730542,742.4869720829884,1.999584752280498,744.5704331249872,4.079710294259712,744.5847315829888,None,307115,001,2023-11-27_16h59.11.329,semanticsuppression,2023.2.2,None,2023-11-27 16h59.16.912538 -0800,
161,semanticR,boat,ship,3,0,179,179,160,744.5929113329912,,,,,,,,,,,,,,,,,,,744.5851746249828,744.5929113329912,745.5746024999826,745.5746024999826,745.5896999579854,745.8699632499774,1.2996802112902515,746.2718462909979,1.6872555862937588,746.5676431659958,1.9996643772756215,748.651016541,4.066435044282116,748.6518661250011,None,307115,001,2023-11-27_16h59.11.329,semanticsuppression,2023.2.2,None,2023-11-27 16h59.16.912538 -0800,
211,Same,ship,ship,3,0,180,180,210,748.6600883329811,,,,,,,,,,,,,,,,,,,748.6525802079996,748.6600883329811,749.6567211659858,749.6567211659858,749.6567211659858,749.9532204159768,1.302765169297345,750.3556014999922,1.6909988363040611,750.6533871659776,2.0029828773112968,752.7342622079886,4.069642294285586,752.7345527079888,None,307115,001,2023-11-27_16h59.11.329,semanticsuppression,2023.2.2,None,2023-11-27 16h59.16.912538 -0800,
214,1D,cook,book,3,0,181,181,213,752.7430535829917,,,,,,,,,,,,,,,,,,,752.7349940409767,752.7430535829917,753.7399747079762,753.7399747079762,753.7399747079762,754.0367947499908,1.3062910443113651,754.4383463749837,1.6937440863111988,754.7343996659911,2.0064144193020184,756.8279190409812,4.07365183631191,756.819147000002,None,307115,001,2023-11-27_16h59.11.329,semanticsuppression,2023.2.2,None,2023-11-27 16h59.16.912538 -0800,
92,Different,chef,book,3,0,182,182,91,756.8279190409812,,,,,,,,,,,,,,,,,,,756.8199187080027,756.8279190409812,757.8242051659909,757.8242051659909,757.8242051659909,758.1227609999769,1.3096958773385268,758.5214004580048,1.6968035023310222,758.8177318749949,2.0096921693184413,760.9018099159875,4.077285169332754,760.9027405829984,None,307115,001,2023-11-27_16h59.11.329,semanticsuppression,2023.2.2,None,2023-11-27 16h59.16.912538 -0800,
142,1D,boat,goat,2,0,183,183,141,760.9125403749931,,,,,,,,,,,,,,,,,,,760.9037544159801,760.9125403749931,761.9010568329832,761.9010568329832,761.9064885829866,762.1881671249866,1.2998160863353405,762.6010125409812,1.6964181273360737,762.8873168329883,2.000275544327451,764.9716426660016,4.0798510023450945,764.9848200409906,None,307115,001,2023-11-27_16h59.11.329,semanticsuppression,2023.2.2,None,2023-11-27 16h59.16.912538 -0800,
32,Different,chef,book,3,0,184,184,31,764.9941820410022,,,,,,,,,,,,,,,,,,,764.9852756249893,764.9941820410022,765.9742738749774,765.9742738749774,765.989798790979,766.2714256659965,1.2997753773524892,766.671748875,1.6871502943395171,766.9675493749965,1.9999061273410916,769.051581207983,4.066966211335966,769.0520343749959,None,307115,001,2023-11-27_16h59.11.329,semanticsuppression,2023.2.2,None,2023-11-27 16h59.16.912538 -0800,
88,Different,ship,goat,2,0,185,185,87,769.0603940000001,,,,,,,,,,,,,,,,,,,769.0524816249963,769.0603940000001,770.0566147079808,770.0566147079808,770.0566147079808,770.3545586660039,1.3031122113752645,770.7552414159873,1.6906393773679156,771.0510877499764,2.003093544364674,773.1343917909835,4.069775752373971,773.1347339579952,None,307115,001,2023-11-27_16h59.11.329,semanticsuppression,2023.2.2,None,2023-11-27 16h59.16.912538 -0800,
180,Different,chef,book,3,0,186,186,179,773.1434238749789,,,,,,,,,,,,,,,,,,,773.1352159579983,773.1434238749789,774.1405530829797,774.1405530829797,774.1405530829797,774.4377913749777,1.306377502362011,774.8389536250033,1.6943550443684217,775.1369161249895,2.006475752365077,777.2178236659965,4.073207252367865,777.2181570829998,None,307115,001,2023-11-27_16h59.11.329,semanticsuppression,2023.2.2,None,2023-11-27 16h59.16.912538 -0800,
76,Different,book,chef,2,0,187,187,75,777.2266845409758,,,,,,,,,,,,,,,,,,,777.2186192079971,777.2266845409758,778.2238573749783,778.2238573749783,778.2238573749783,778.5217354999913,1.3097941693849862,778.9221794579935,1.697600752377184,779.2178136250004,2.0098236273915973,781.3011725409888,4.076559044391615,781.3015268329764,None,307115,001,2023-11-27_16h59.11.329,semanticsuppression,2023.2.2,None,2023-11-27 16h59.16.912538 -0800,
70,1D,book,cook,2,0,188,188,69,781.3085735409986,,,,,,,,,,,,,,,,,,,781.3020355000044,781.3085735409986,782.301154832996,782.301154832996,782.3066181659815,782.5868294159882,1.3131321273976937,783.0011577499972,1.7003958774148487,783.2883590830024,2.0003289194137324,785.3720667499874,4.0799169614037964,785.3848580409831,None,307115,001,2023-11-27_16h59.11.329,semanticsuppression,2023.2.2,None,2023-11-27 16h59.16.912538 -0800,
208,Different,ship,goat,2,0,189,189,207,785.3931959579932,,,,,,,,,,,,,,,,,,,785.3853061659902,785.3931959579932,786.3735419579898,786.3735419579898,786.3894284580019,786.6702917079965,1.2997518774063792,787.0716305410024,1.6870255024114158,787.3677492909774,1.9998700444120914,789.451171749999,4.06655329442583,789.4514917909983,None,307115,001,2023-11-27_16h59.11.329,semanticsuppression,2023.2.2,None,2023-11-27 16h59.16.912538 -0800,
138,1D,book,cook,2,0,190,190,137,789.4594240000006,,,,,,,,,,,,,,,,,,,789.4519487499783,789.4594240000006,790.4562712500046,790.4562712500046,790.4562712500046,790.7511772080034,1.3031762524333317,791.1550481249869,1.6904399194172584,791.4511749999947,2.0032302524195984,793.5344666659948,4.069853752414929,793.534744582983,None,307115,001,2023-11-27_16h59.11.329,semanticsuppression,2023.2.2,None,2023-11-27 16h59.16.912538 -0800,
158,1D,book,cook,2,0,191,191,157,793.5388194999832,,,,,,,,,,,,,,,,,,,793.5351312079874,793.5388194999832,794.5402313329978,794.5402313329978,794.5402313329978,794.8370381249988,1.3065210024360567,795.2381543749943,1.6935558774275705,795.5344497909828,2.0065819194423966,797.6179426659946,4.073326877434738,797.6183261249971,None,307115,001,2023-11-27_16h59.11.329,semanticsuppression,2023.2.2,None,2023-11-27 16h59.16.912538 -0800,
162,1D,boat,goat,2,0,192,192,161,797.6267810409772,,,,,,,,,,,,,,,,,,,797.61878208298,797.6267810409772,798.6232757499965,798.6232757499965,798.6232757499965,798.9177952909959,1.3098810024384875,799.3219232909905,1.6973190864664502,799.6178908330039,2.009954252454918,801.7012128329952,4.076597002451308,801.701661915984,None,307115,001,2023-11-27_16h59.11.329,semanticsuppression,2023.2.2,None,2023-11-27 16h59.16.912538 -0800,
52,Different,chef,book,3,0,193,193,51,801.7103011659929,,,,,,,,,,,,,,,,,,,801.7021792909945,801.7103011659929,802.7012455829827,802.7012455829827,802.7067585829936,802.9885805409867,1.3006848364602774,803.4012109999894,1.6966042524727527,803.6871942909784,1.9990924614539836,805.770285415987,,805.7847441659833,None,307115,001,2023-11-27_16h59.11.329,semanticsuppression,2023.2.2,None,2023-11-27 16h59.16.912538 -0800,
187,Same,goat,goat,2,0,194,194,186,805.7932968329987,,,,,,,,,,,,,,,,,,,805.785222165985,805.7932968329987,806.7740889999841,806.7740889999841,806.7895678329805,807.0719394159969,1.2998868364666123,807.4715829999768,1.6869829614879563,807.7679937499925,1.9999883774726186,809.851298790978,4.066684502467979,809.8516570829961,None,307115,001,2023-11-27_16h59.11.329,semanticsuppression,2023.2.2,None,2023-11-27 16h59.16.912538 -0800,
171,Same,ship,ship,3,0,195,195,170,809.8609017079871,,,,,,,,,,,,,,,,,,,809.8521239999973,809.8609017079871,810.8571308329992,810.8571308329992,810.8571308329992,811.1536784159834,1.3033232114976272,811.5548365409777,1.6902305864787195,811.8512961659872,2.0033208364911843,813.9345819579903,4.069961961504305,813.9348624999984,None,307115,001,2023-11-27_16h59.11.329,semanticsuppression,2023.2.2,None,2023-11-27 16h59.16.912538 -0800,
160,Different,chef,book,3,0,196,196,159,813.9425259159761,,,,,,,,,,,,,,,,,,,813.9352323329949,813.9425259159761,814.9401675830013,814.9401675830013,814.9401675830013,815.2387401250016,1.306595294503495,815.6384802499961,1.693886836495949,815.9347656659957,2.006747836509021,818.0180565829796,4.073455086501781,818.0184021659952,None,307115,001,2023-11-27_16h59.11.329,semanticsuppression,2023.2.2,None,2023-11-27 16h59.16.912538 -0800,
31,Same,ship,ship,3,0,197,197,30,818.0264614579792,,,,,,,,,,,,,,,,,,,818.0188658330007,818.0264614579792,819.023386832996,819.023386832996,819.023386832996,819.322016791004,1.3098982115043327,819.7217454999918,1.6971368365047965,820.0179886249825,2.0099973775213584,822.101344790979,4.076728919520974,822.1016941249836,None,307115,001,2023-11-27_16h59.11.329,semanticsuppression,2023.2.2,None,2023-11-27 16h59.16.912538 -0800,
186,1D,goat,boat,3,0,198,198,185,822.1104232909856,,,,,,,,,,,,,,,,,,,822.102204750001,822.1104232909856,823.1014058750006,823.1014058750006,823.1071114999941,823.3888639579818,1.300857211521361,823.801341790997,1.6967363775183912,824.0870960000029,1.9993556695408188,826.1720507080026,,826.1860587499978,None,307115,001,2023-11-27_16h59.11.329,semanticsuppression,2023.2.2,None,2023-11-27 16h59.16.912538 -0800,
168,Different,ship,goat,2,0,199,199,167,826.2014111249882,,,,,,,,,,,,,,,,,,,826.1869548329851,826.2014111249882,827.1744154579937,827.1744154579937,827.1896697499906,827.4706097079907,1.299998669535853,827.8718768749968,1.6872700025560334,828.167995915981,2.0000131695414893,830.2514252499968,4.066811002528993,830.251856582996,None,307115,001,2023-11-27_16h59.11.329,semanticsuppression,2023.2.2,None,2023-11-27 16h59.16.912538 -0800,
117,semanticR,chef,cook,2,0,200,200,116,830.2612686249777,,,,,,,,,,,,,,,,,,,830.2524107909994,830.2612686249777,831.2570247080002,831.2570247080002,831.2570247080002,831.5553331249976,1.30337858654093,831.9551614999946,1.690560336544877,832.2514173749951,2.0034108365653083,834.3347139999969,4.070094211550895,834.3349965829984,None,307115,001,2023-11-27_16h59.11.329,semanticsuppression,2023.2.2,None,2023-11-27 16h59.16.912538 -0800,
36,Different,book,chef,2,0,201,201,35,834.3426724159799,,,,,,,,,,,,,,,,,,,834.3353991659824,834.3426724159799,835.340490832983,835.340490832983,835.340490832983,835.6384084159799,1.3067219195654616,836.03861649998,1.6940072525758296,836.3347266659839,2.006703252554871,838.4181946250028,4.073631419567391,838.4191195829771,None,307115,001,2023-11-27_16h59.11.329,semanticsuppression,2023.2.2,None,2023-11-27 16h59.16.912538 -0800,
223,Same,boat,boat,3,0,202,202,222,838.4288498749956,,,,,,,,,,,,,,,,,,,838.4199196249829,838.4288498749956,839.4233371249866,839.4233371249866,839.4233371249866,839.7180007909774,1.310017794574378,840.1219057909911,1.697310752584599,840.4180038329796,2.01015475258464,842.5014492499758,4.076836294581881,842.5017884160043,None,307115,001,2023-11-27_16h59.11.329,semanticsuppression,2023.2.2,None,2023-11-27 16h59.16.912538 -0800,
192,Different,chef,book,3,0,203,203,191,842.5100835829799,,,,,,,,,,,,,,,,,,,842.5022674159845,842.5100835829799,843.5014039579837,843.5014039579837,843.5062086249818,843.7870838329836,1.3004673365794588,844.2014650409983,1.6968685865867883,844.487312207988,1.9991975025914144,846.5704347080027,,846.5848620829929,None,307115,001,2023-11-27_16h59.11.329,semanticsuppression,2023.2.2,None,2023-11-27 16h59.16.912538 -0800,
106,1D,goat,boat,3,0,204,204,105,846.5924375409959,,,,,,,,,,,,,,,,,,,846.5852464579802,846.5924375409959,847.5743292910047,847.5743292910047,847.5896277909924,847.8720589579898,1.3001086276199203,848.2720022909925,1.6873969616135582,848.5681460409833,2.000225336611038,850.6515592499927,4.066945627593668,850.6519426659797,None,307115,001,2023-11-27_16h59.11.329,semanticsuppression,2023.2.2,None,2023-11-27 16h59.16.912538 -0800,
14,1D,cook,book,3,0,205,205,13,850.6613767079834,,,,,,,,,,,,,,,,,,,850.652463040984,850.6613767079834,851.6571197079902,851.6571197079902,851.6571197079902,851.9562248750008,1.303343961626524,852.3552924579999,1.6906871276150923,852.6515111250046,2.0035509196168277,854.7348178329994,4.070202086615609,854.735143124999,None,307115,001,2023-11-27_16h59.11.329,semanticsuppression,2023.2.2,None,2023-11-27 16h59.16.912538 -0800,
97,semanticR,chef,cook,2,0,206,206,96,854.7436991249851,,,,,,,,,,,,,,,,,,,854.7356013749959,854.7436991249851,855.7401770830038,855.7401770830038,855.7401770830038,856.034822207992,1.306888169638114,856.4389764579828,1.6943811276287306,856.734804415988,2.0068254196376074,858.8182644579792,4.073648211633554,858.8186232500011,None,307115,001,2023-11-27_16h59.11.329,semanticsuppression,2023.2.2,None,2023-11-27 16h59.16.912538 -0800,
20,Different,chef,book,3,0,207,207,19,858.8254190409789,,,,,,,,,,,,,,,,,,,858.8191249579831,858.8254190409789,859.8239293749793,859.8239293749793,859.8239293749793,860.1219834160001,1.3101351276563946,860.522216915997,1.6976075866550673,860.8182929159957,2.010258211637847,862.9021733749832,4.077640794654144,862.9030847079994,None,307115,001,2023-11-27_16h59.11.329,semanticsuppression,2023.2.2,None,2023-11-27 16h59.16.912538 -0800,
229,semanticR,chef,cook,2,0,208,208,228,862.9115649999876,,,,,,,,,,,,,,,,,,,862.9038845829782,862.9115649999876,863.9014685830043,863.9014685830043,863.9066769579949,864.1890937499993,1.3006397526478395,864.601601250004,1.6969975026440807,864.8888142499782,2.0012374196667224,866.9706314159848,,866.9849820410018,None,307115,001,2023-11-27_16h59.11.329,semanticsuppression,2023.2.2,None,2023-11-27 16h59.16.912538 -0800,
155,Same,cook,cook,2,0,209,209,154,866.9916905409773,,,,,,,,,,,,,,,,,,,866.985475458001,866.9916905409773,867.9744563330023,867.9744563330023,867.984918290982,868.2724234999914,1.3001922116673086,868.6719689999882,1.687375711655477,868.9679995829938,2.0002652526600286,871.0585128329985,4.067541919677751,871.0529679579777,None,307115,001,2023-11-27_16h59.11.329,semanticsuppression,2023.2.2,None,2023-11-27 16h59.16.912538 -0800,
135,Same,cook,cook,2,0,210,210,134,871.0585128329985,,,,,,,,,,,,,,,,,,,871.0537166249997,871.0585128329985,872.0573438749998,872.0573438749998,872.0573438749998,872.3558737499989,1.303517294669291,872.7552372499777,1.6906425446795765,873.0515092909918,2.0036243776849005,875.1349198749813,4.070303461689036,875.1353583329765,None,307115,001,2023-11-27_16h59.11.329,semanticsuppression,2023.2.2,None,2023-11-27 16h59.16.912538 -0800,
81,semanticR,boat,ship,3,0,211,211,80,875.1438282079762,,,,,,,,,,,,,,,,,,,875.1358769579965,875.1438282079762,876.1407889580005,876.1407889580005,876.1407889580005,876.4386068329914,1.3069883777061477,876.8389208749868,1.694311044702772,877.1350080409902,2.0069681697059423,879.2183355409943,4.073726627684664,879.2187164159841,None,307115,001,2023-11-27_16h59.11.329,semanticsuppression,2023.2.2,None,2023-11-27 16h59.16.912538 -0800,
111,Same,ship,ship,3,0,212,212,110,879.2249423750036,,,,,,,,,,,,,,,,,,,879.2190923329908,879.2249423750036,880.2258142499777,880.2258142499777,880.2258142499777,880.5228160829865,1.310445877694292,880.9183385829965,1.6989541276998352,881.206430915976,1.999360586720286,883.3015347500041,4.076910419709748,883.301815999992,None,307115,001,2023-11-27_16h59.11.329,semanticsuppression,2023.2.2,None,2023-11-27 16h59.16.912538 -0800,
49,semanticR,chef,cook,2,0,213,213,48,883.3087137079856,,,,,,,,,,,,,,,,,,,883.3021722909762,883.3087137079856,884.3016186659806,884.3016186659806,884.3057348750008,884.5899766660004,1.3021544197108597,885.0016104999813,1.6970066697103903,885.288726165978,2.00213112772326,887.3732246659929,,887.3851740410028,None,307115,001,2023-11-27_16h59.11.329,semanticsuppression,2023.2.2,None,2023-11-27 16h59.16.912538 -0800,
181,semanticR,boat,ship,3,0,214,214,180,887.3923632079968,,,,,,,,,,,,,,,,,,,887.3854870409996,887.3923632079968,888.3750406249892,888.3750406249892,888.3850492499769,888.672955749993,1.300449919741368,889.074359249993,1.689760252746055,889.368387540977,2.0005250447429717,891.4516726250004,4.071635002736002,891.4564887500019,None,307115,001,2023-11-27_16h59.11.329,semanticsuppression,2023.2.2,None,2023-11-27 16h59.16.912538 -0800,
157,semanticR,chef,cook,2,0,215,215,156,891.4684244579985,,,,,,,,,,,,,,,,,,,891.4568327500019,891.4684244579985,892.4564787909912,892.4564787909912,892.4564787909912,892.7516475000011,1.303687627747422,893.1559545409982,1.691363711754093,893.4518367909768,2.003845502738841,895.5350740409922,4.076016377744963,895.540882915986,None,307115,001,2023-11-27_16h59.11.329,semanticsuppression,2023.2.2,None,2023-11-27 16h59.16.912538 -0800,
42,1D,boat,goat,2,0,216,216,41,895.5517088749912,,,,,,,,,,,,,,,,,,,895.5412348749815,895.5517088749912,896.5394960829872,896.5394960829872,896.5394960829872,896.8351032499922,1.3071151697658934,897.2408947499935,1.696295086760074,897.5390213329811,2.0071104617672972,899.618348457996,4.077382711751852,899.6223183749826,None,307115,001,2023-11-27_16h59.11.329,semanticsuppression,2023.2.2,None,2023-11-27 16h59.16.912538 -0800,
98,1D,book,cook,2,0,217,217,97,899.6350173329993,,,,,,,,,,,,,,,,,,,899.6227807499818,899.6350173329993,900.6246039579855,900.6246039579855,900.6246039579855,900.9220707079803,1.3103842527780216,901.3223561659979,1.6977589617599733,901.6183677910012,2.0103697117592674,903.7018144159811,4.077198086772114,903.7021830829908,None,307115,001,2023-11-27_16h59.11.329,semanticsuppression,2023.2.2,None,2023-11-27 16h59.16.912538 -0800,
131,Same,ship,ship,3,0,218,218,130,903.7109287499916,,,,,,,,,,,,,,,,,,,903.7026497499901,903.7109287499916,904.7017346249777,904.7017346249777,904.7069805409992,904.9872379159788,1.2993892947852146,905.4016712080047,1.6970612527802587,905.6877671249968,2.001031419786159,907.7724039159948,,907.7851826249971,None,307115,001,2023-11-27_16h59.11.329,semanticsuppression,2023.2.2,None,2023-11-27 16h59.16.912538 -0800,
145,semanticR,ship,boat,3,0,219,219,144,907.792181790981,,,,,,,,,,,,,,,,,,,907.7856208749872,907.792181790981,908.7744851250027,908.7744851250027,908.7902237499948,909.1344490000047,1.347127836808795,909.4719444999937,1.733747127786046,909.7684594159946,2.000464419805212,911.851747165987,4.067130961804651,911.8520667499979,None,307115,001,2023-11-27_16h59.11.329,semanticsuppression,2023.2.2,None,2023-11-27 16h59.16.912538 -0800,
116,Different,book,chef,2,0,220,220,115,911.8603354159859,,,,,,,,,,,,,,,,,,,911.8525220409792,911.8603354159859,912.8580448330031,912.8580448330031,912.8580448330031,913.1557054579898,1.3037926278193481,913.5555110829882,1.690902002825169,913.8517255829938,2.0037480448081624,915.9352052499889,4.070598586811684,915.9355549159809,None,307115,001,2023-11-27_16h59.11.329,semanticsuppression,2023.2.2,None,2023-11-27 16h59.16.912538 -0800,
29,semanticR,chef,cook,2,0,221,221,28,915.944342999981,,,,,,,,,,,,,,,,,,,915.9360278329987,915.944342999981,916.9407773749845,916.9407773749845,916.9407773749845,917.2402961659827,1.307154461828759,917.6391583749792,1.6945498368295375,917.9353848749888,2.0071881278126966,920.0184716660006,4.073857711831806,920.0188473329763,None,307115,001,2023-11-27_16h59.11.329,semanticsuppression,2023.2.2,None,2023-11-27 16h59.16.912538 -0800,
164,Different,goat,ship,3,0,222,222,163,920.0271544159914,,,,,,,,,,,,,,,,,,,920.0193834999809,920.0271544159914,921.0242924579943,921.0242924579943,921.0242924579943,921.3225951249769,1.3104805868351832,921.7224297079956,1.697840377833927,922.0184941659973,2.010524502838962,924.1017920829763,4.077177002822282,924.1022421660018,None,307115,001,2023-11-27_16h59.11.329,semanticsuppression,2023.2.2,None,2023-11-27 16h59.16.912538 -0800,
53,semanticR,cook,chef,2,0,223,223,52,924.1117802499793,,,,,,,,,,,,,,,,,,,924.1027752499795,924.1117802499793,925.1018049159902,925.1018049159902,925.1070421249897,925.3892469579878,1.3010569198522717,925.8018200410006,1.6972167118510697,926.087733458,1.9997572948632296,928.1714917909994,,928.1853158749873,None,307115,001,2023-11-27_16h59.11.329,semanticsuppression,2023.2.2,None,2023-11-27 16h59.16.912538 -0800,
23,Same,boat,boat,3,0,224,224,22,928.1940842909971,,,,,,,,,,,,,,,,,,,928.1858401659993,928.1940842909971,929.1748948329769,929.1748948329769,929.1901333330024,929.4720204159967,1.3005553778493777,929.8722993329866,1.6876993778569158,930.1685641249933,2.0005578778509516,932.2519075000018,4.0672912948648445,932.2522153329919,None,307115,001,2023-11-27_16h59.11.329,semanticsuppression,2023.2.2,None,2023-11-27 16h59.16.912538 -0800,
10,1D,book,cook,2,0,225,225,9,932.2600455409847,,,,,,,,,,,,,,,,,,,932.2526617499825,932.2600455409847,933.2572539579996,933.2572539579996,933.2572539579996,933.5518807079934,1.3038896698853932,933.9556685409916,1.6910592118802015,934.2519376249984,2.0038859618653078,936.3352822499874,4.070669544860721,936.3357034999935,None,307115,001,2023-11-27_16h59.11.329,semanticsuppression,2023.2.2,None,2023-11-27 16h59.16.912538 -0800,
19,Same,chef,chef,2,0,226,226,18,936.3448878749914,,,,,,,,,,,,,,,,,,,936.3363000829995,936.3448878749914,937.340479165985,937.340479165985,937.340479165985,937.6351549579995,1.3072830448800232,938.0392830829951,1.6946788778877817,938.3351479999837,2.0072643368912395,940.4182664999971,4.073641794879222,940.4185179159977,None,307115,001,2023-11-27_16h59.11.329,semanticsuppression,2023.2.2,None,2023-11-27 16h59.16.912538 -0800,
