trial,condition,primeword,target,correctResp,repeats.thisRepN,repeats.thisTrialN,repeats.thisN,repeats.thisIndex,thisRow.t,notes,scanner_init.started,text.started,key_resp_2.started,scanner_init.stopped,key_resp_2.keys,key_resp_2.rt,key_resp_2.duration,instructions.started,key_instruct.started,instructions.stopped,key_instruct.keys,key_instruct.rt,key_instruct.duration,longfix.started,startfixation.started,startfixation.stopped,longfix.stopped,trials.started,bwtrialsfixation.started,prime.started,key_resp.started,bwtrialsfixation.stopped,prime.stopped,filler.started,stimulus.started,filler.stopped,stimulus.stopped,filler2.started,key_resp.stopped,filler2.stopped,trials.stopped,key_resp.keys,participant,session,date,expName,psychopyVersion,frameRate,expStart,
,,,,,,,,,,,0.005127209005877376,0.008279125002445653,0.008279125002445653,2.3080121249950025,space,2.2754592080018483,None,,,,,,,,,,,,,,,,,,,,,,,,,,409058,001,2023-11-28_15h19.03.311,semanticsuppression,2023.2.2,None,2023-11-28 15h19.09.244452 -0800,
,,,,,,,,,,,,,,,,,,2.308042334014317,2.3309134590090252,25.870063334004954,space,23.52404791698791,None,,,,,,,,,,,,,,,,,,,,409058,001,2023-11-28_15h19.03.311,semanticsuppression,2023.2.2,None,2023-11-28 15h19.09.244452 -0800,
55,Same,cook,cook,2,0,0,0,54,36.12154616700718,,,,,,,,,,,,,,,25.870099834020948,25.884087459009606,36.12154616700718,36.068711917003384,36.112034459016286,36.12154616700718,37.06843025001581,37.06843025001581,37.1182269169949,37.35500420900644,1.3022347920050379,37.75772058402072,1.6992307920008898,38.06894320901483,1.9990094589884393,40.13869399999385,4.068624917010311,40.138912833994254,None,409058,001,2023-11-28_15h19.03.311,semanticsuppression,2023.2.2,None,2023-11-28 15h19.09.244452 -0800,
89,semanticR,chef,cook,2,0,1,1,88,40.15165895901737,,,,,,,,,,,,,,,,,,,40.13991358401836,40.15165895901737,41.13920608401531,41.13920608401531,41.13920608401531,41.435072874999605,1.301604459004011,41.83945883400156,1.689412750012707,42.15326916699996,2.0032260000007227,44.20628716700594,,44.23604350001551,None,409058,001,2023-11-28_15h19.03.311,semanticsuppression,2023.2.2,None,2023-11-28 15h19.09.244452 -0800,
200,Different,chef,book,3,0,2,2,199,44.241686042019865,,,,,,,,,,,,,,,,,,,44.236365834018216,44.241686042019865,45.22625083400635,45.22625083400635,45.234990084019955,45.52220537501853,1.3048927090130746,45.92331895901589,1.6932622090389486,46.21941066702129,2.0051457500376273,48.30173091700999,4.071662709029624,48.30199224999524,None,409058,001,2023-11-28_15h19.03.311,semanticsuppression,2023.2.2,None,2023-11-28 15h19.09.244452 -0800,
45,semanticR,ship,boat,3,0,3,3,44,48.30974658401101,,,,,,,,,,,,,,,,,,,48.302296959009254,48.30974658401101,49.318347249994986,49.318347249994986,49.318347249994986,49.60445191699546,1.3083315000403672,50.00701283401577,1.6969916250382084,50.31948679199559,2.0095955000433605,52.388754834013525,4.07868287502788,52.388955083995825,None,409058,001,2023-11-28_15h19.03.311,semanticsuppression,2023.2.2,None,2023-11-28 15h19.09.244452 -0800,
53,semanticR,cook,chef,2,0,4,4,52,52.401575374999084,,,,,,,,,,,,,,,,,,,52.389212042005965,52.401575374999084,53.39107762501226,53.39107762501226,53.39107762501226,53.68868758401368,1.31161270904704,54.08604670900968,1.7007632500608452,54.386081792006735,2.001561584038427,56.468560209003044,4.078491125052096,56.46876983399852,None,409058,001,2023-11-28_15h19.03.311,semanticsuppression,2023.2.2,None,2023-11-28 15h19.09.244452 -0800,
106,1D,goat,boat,3,0,5,5,105,56.47502833401086,,,,,,,,,,,,,,,,,,,56.469035959016765,56.47502833401086,57.468507125013275,57.468507125013275,57.474566749995574,57.75566233400605,1.3025476250622887,58.16945887499605,1.6995644590642769,58.46808954200242,2.0004395840514917,60.540034500008915,,60.55199008400086,None,409058,001,2023-11-28_15h19.03.311,semanticsuppression,2023.2.2,None,2023-11-28 15h19.09.244452 -0800,
154,1D,cook,book,3,0,6,6,153,60.561359209008515,,,,,,,,,,,,,,,,,,,60.55301554201287,60.561359209008515,61.539823375002015,61.539823375002015,61.55465645901859,61.83506070901058,1.3017297090846114,62.23835583400796,1.6882990420854185,62.534905709006125,2.001504125073552,64.61902112502139,4.069025167089421,64.62017195901717,None,409058,001,2023-11-28_15h19.03.311,semanticsuppression,2023.2.2,None,2023-11-28 15h19.09.244452 -0800,
7,Same,goat,goat,2,0,7,7,6,64.62720887499745,,,,,,,,,,,,,,,,,,,64.62119862501277,64.62720887499745,65.62294745902182,65.62294745902182,65.62294745902182,65.9186074169993,1.3064396670961287,66.33674933400471,1.7068097920855507,66.63510162499733,2.0050485420797486,68.7029806250066,4.072909334092401,68.70318645899533,None,409058,001,2023-11-28_15h19.03.311,semanticsuppression,2023.2.2,None,2023-11-28 15h19.09.244452 -0800,
81,semanticR,boat,ship,3,0,8,8,80,68.71850841701962,,,,,,,,,,,,,,,,,,,68.70344658399699,68.71850841701962,69.70603370902245,69.70603370902245,69.70603370902245,70.00187154201558,1.3084977091057226,70.41987395900651,1.7099209591106046,70.70635162500548,2.008423959108768,72.77446470901486,4.075312167115044,72.78633120900486,None,409058,001,2023-11-28_15h19.03.311,semanticsuppression,2023.2.2,None,2023-11-28 15h19.09.244452 -0800,
223,Same,boat,boat,3,0,9,9,222,72.7929087090015,,,,,,,,,,,,,,,,,,,72.78737604201888,72.7929087090015,73.78939829202136,73.78939829202136,73.78939829202136,74.08520404199953,1.3117590421170462,74.48580441699596,1.6980095001053996,74.77364362499793,2.000280459120404,76.85755225000321,4.078460459102644,76.86886291700648,None,409058,001,2023-11-28_15h19.03.311,semanticsuppression,2023.2.2,None,2023-11-28 15h19.09.244452 -0800,
166,1D,goat,boat,3,0,10,10,165,76.87412091699662,,,,,,,,,,,,,,,,,,,76.86921204201644,76.87412091699662,77.86857941700146,77.86857941700146,77.86857941700146,78.1572173750028,1.303030292125186,78.56844233401353,1.6984009171428625,78.8569020840223,2.001994417136302,80.93857879200368,,80.95231354201678,None,409058,001,2023-11-28_15h19.03.311,semanticsuppression,2023.2.2,None,2023-11-28 15h19.09.244452 -0800,
52,Different,chef,book,3,0,11,11,51,80.9599473340204,,,,,,,,,,,,,,,,,,,80.95315750001464,80.9599473340204,81.94359437501407,81.94359437501407,81.95179891699809,82.23906929200166,1.3018477091391105,82.63960916700307,1.6896812091290485,82.95280216701212,2.002854000136722,85.0221527920221,4.072082000144292,85.0224045420182,None,409058,001,2023-11-28_15h19.03.311,semanticsuppression,2023.2.2,None,2023-11-28 15h19.09.244452 -0800,
169,semanticR,chef,cook,2,0,12,12,168,85.03518900001654,,,,,,,,,,,,,,,,,,,85.02269991699723,85.03518900001654,86.02539141700254,86.02539141700254,86.02539141700254,86.32249287501327,1.305135167145636,86.72422104200814,1.6941800421627704,87.0358974590199,2.005987875163555,89.11863033400732,4.073445875168545,89.10456624999642,None,409058,001,2023-11-28_15h19.03.311,semanticsuppression,2023.2.2,None,2023-11-28 15h19.09.244452 -0800,
136,Different,book,chef,2,0,13,13,135,89.11863033400732,,,,,,,,,,,,,,,,,,,89.10576758399839,89.11863033400732,90.10635887499666,90.10635887499666,90.10635887499666,90.40192737500183,1.3086705841706134,90.80952937499387,1.6994742921669967,91.1190076250059,2.0090373341809027,93.1735125000123,4.078346459165914,93.1886924590217,None,409058,001,2023-11-28_15h19.03.311,semanticsuppression,2023.2.2,None,2023-11-28 15h19.09.244452 -0800,
128,Different,ship,goat,2,0,14,14,127,93.2017050840077,,,,,,,,,,,,,,,,,,,93.18897575000301,93.2017050840077,94.20179633400403,94.20179633400403,94.20179633400403,94.48896983399754,1.3117966251738835,94.90337079201709,1.7134083341807127,95.20193599999766,1.999054750194773,,,97.27052483402076,None,409058,001,2023-11-28_15h19.03.311,semanticsuppression,2023.2.2,None,2023-11-28 15h19.09.244452 -0800,
61,semanticR,boat,ship,3,0,15,15,60,97.28539100001217,,,,,,,,,,,,,,,,,,,97.27128479201929,97.28539100001217,98.26858016700135,98.26858016700135,98.27275987502071,98.55576620899956,1.3019878341874573,98.958061250014,1.6996880001970567,99.26851645900751,2.002001000189921,101.33975383400684,,101.35291141699417,None,409058,001,2023-11-28_15h19.03.311,semanticsuppression,2023.2.2,None,2023-11-28 15h19.09.244452 -0800,
23,Same,boat,boat,3,0,16,16,22,101.36101362502086,,,,,,,,,,,,,,,,,,,101.35382562500308,101.36101362502086,102.35198966701864,102.35198966701864,102.35651241699816,102.6398131250171,1.30195458419621,103.04190404200926,1.6918698752124328,103.35204983400763,2.0019975842151325,105.42570229200646,4.069253459194442,105.41955229200539,None,409058,001,2023-11-28_15h19.03.311,semanticsuppression,2023.2.2,None,2023-11-28 15h19.09.244452 -0800,
72,Different,chef,book,3,0,17,17,71,105.42570229200646,,,,,,,,,,,,,,,,,,,105.41983895900194,105.42570229200646,106.42529033400933,106.42529033400933,106.42529033400933,106.72172845900059,1.3052999172068667,107.12493741701473,1.6948802502301987,107.42017533400212,2.0060460002277978,109.5025572089944,4.072539459215477,109.50348079201649,None,409058,001,2023-11-28_15h19.03.311,semanticsuppression,2023.2.2,None,2023-11-28 15h19.09.244452 -0800,
150,1D,book,cook,2,0,18,18,149,109.50979320899933,,,,,,,,,,,,,,,,,,,109.50420462500188,109.50979320899933,110.50641270901542,110.50641270901542,110.50641270901542,110.80203870902187,1.308690167235909,111.20474837502115,1.7085797502368223,111.50197112502065,2.0086742092389613,113.58565408401773,4.075732417230029,113.58736987502198,None,409058,001,2023-11-28_15h19.03.311,semanticsuppression,2023.2.2,None,2023-11-28 15h19.09.244452 -0800,
178,1D,book,cook,2,0,19,19,177,113.5910957500164,,,,,,,,,,,,,,,,,,,113.58774225000525,113.5910957500164,114.58531275001587,114.58531275001587,114.58531275001587,114.8721532089985,1.3120347922376823,115.28690929201548,1.6968540842353832,115.58675362501526,2.013372917252127,117.65447641699575,,117.67323891702108,None,409058,001,2023-11-28_15h19.03.311,semanticsuppression,2023.2.2,None,2023-11-28 15h19.09.244452 -0800,
109,semanticR,chef,cook,2,0,20,20,108,117.68532541699824,,,,,,,,,,,,,,,,,,,117.6735405420186,117.68532541699824,118.65783516701777,118.65783516701777,118.67282425001031,118.95568179199472,1.30191950025619,119.35727008400136,1.7002473752654623,119.65367266701651,1.999487375258468,121.73974366701441,4.0696770842478145,121.74004154201248,None,409058,001,2023-11-28_15h19.03.311,semanticsuppression,2023.2.2,None,2023-11-28 15h19.09.244452 -0800,
168,Different,ship,goat,2,0,21,21,167,121.75191175000509,,,,,,,,,,,,,,,,,,,121.74057066699606,121.75191175000509,122.75199033401441,122.75199033401441,122.75199033401441,123.03880229199422,1.3021057092701085,123.45349191699643,1.7035743752785493,123.75278779200744,2.0028473342827056,125.82123195900931,4.071159667277243,125.8214757090027,None,409058,001,2023-11-28_15h19.03.311,semanticsuppression,2023.2.2,None,2023-11-28 15h19.09.244452 -0800,
173,semanticR,cook,chef,2,0,22,22,172,125.83539445901988,,,,,,,,,,,,,,,,,,,125.82177345899981,125.83539445901988,126.82528416701825,126.82528416701825,126.82528416701825,127.12226850001025,1.3069763342791703,127.52453158400021,1.7070900422695559,127.82445899999584,2.0053939592908137,129.9035582500219,4.073536334297387,129.90451466699596,None,409058,001,2023-11-28_15h19.03.311,semanticsuppression,2023.2.2,None,2023-11-28 15h19.09.244452 -0800,
3,Same,boat,boat,3,0,23,23,2,129.9187757089967,,,,,,,,,,,,,,,,,,,129.90567475001444,129.9187757089967,130.90915316701285,130.90915316701285,130.90915316701285,131.20592633401975,1.308818417310249,131.60747012501815,1.6974407922825776,131.90369604201987,2.0103776672913227,133.98552554199705,,134.00249250000343,None,409058,001,2023-11-28_15h19.03.311,semanticsuppression,2023.2.2,None,2023-11-28 15h19.09.244452 -0800,
141,semanticR,boat,ship,3,0,24,24,140,134.00964500001282,,,,,,,,,,,,,,,,,,,134.00338170901523,134.00964500001282,134.99036920900107,134.99036920900107,135.00606891702046,135.28557212499436,1.2992707923112903,135.69086299999617,1.6955312922946177,135.990949250001,2.0009010843059514,138.05662645900156,4.0794993753079325,138.07038608400035,None,409058,001,2023-11-28_15h19.03.311,semanticsuppression,2023.2.2,None,2023-11-28 15h19.09.244452 -0800,
18,1D,book,cook,2,0,25,25,17,138.07793912501074,,,,,,,,,,,,,,,,,,,138.07116824999684,138.07793912501074,139.06887658400228,139.06887658400228,139.07302720900043,139.35489329200936,1.3026278343168087,139.75609462501598,1.698820125311613,140.0694964590075,1.9994438753346913,142.1522573750117,4.066930250322912,142.1372224999941,None,409058,001,2023-11-28_15h19.03.311,semanticsuppression,2023.2.2,None,2023-11-28 15h19.09.244452 -0800,
139,Same,chef,chef,2,0,26,26,138,142.1522573750117,,,,,,,,,,,,,,,,,,,142.13748795900028,142.1522573750117,143.1539405840158,143.1539405840158,143.1539405840158,143.4521128750057,1.3020512923249044,143.8387125839945,1.688655125326477,144.135596084001,2.002183792326832,146.2246155840112,4.069331667327788,146.22033050001482,None,409058,001,2023-11-28_15h19.03.311,semanticsuppression,2023.2.2,None,2023-11-28 15h19.09.244452 -0800,
219,Same,chef,chef,2,0,27,27,218,146.2246155840112,,,,,,,,,,,,,,,,,,,146.22110633400735,146.2246155840112,147.22600437499932,147.22600437499932,147.21982870899956,147.52279387501767,1.3052763753512409,147.92437641700963,1.69432041735854,148.23711012501735,2.007176334358519,150.30233320899424,,150.31896341699758,None,409058,001,2023-11-28_15h19.03.311,semanticsuppression,2023.2.2,None,2023-11-28 15h19.09.244452 -0800,
148,Different,ship,goat,2,0,28,28,147,150.32471845901455,,,,,,,,,,,,,,,,,,,150.31921700001112,150.32471845901455,151.30680762502016,151.30680762502016,151.32300679199398,151.60215729201445,1.3088214593590237,152.00697529199533,1.6969165003683884,152.3200065419951,2.01009983435506,154.38584245901438,4.079251917370129,154.38955370901385,None,409058,001,2023-11-28_15h19.03.311,semanticsuppression,2023.2.2,None,2023-11-28 15h19.09.244452 -0800,
77,semanticR,chef,cook,2,0,29,29,76,154.40203454199946,,,,,,,,,,,,,,,,,,,154.3898215420195,154.40203454199946,155.3931902500044,155.3931902500044,155.3931902500044,155.6893832090136,1.2993222923832946,156.09247695902013,1.6968013343866915,156.4026955839945,2.0126474173739552,,,158.47028595901793,None,409058,001,2023-11-28_15h19.03.311,semanticsuppression,2023.2.2,None,2023-11-28 15h19.09.244452 -0800,
59,Same,chef,chef,2,0,30,30,58,158.4871714170149,,,,,,,,,,,,,,,,,,,158.47056124999654,158.4871714170149,159.4691632920003,159.4691632920003,159.4856284169946,159.75582295900676,1.3003372923994903,160.1553747500002,1.7013481673784554,160.46943766699405,1.9994965423829854,162.53911537499516,4.069045250391355,162.53930854200735,None,409058,001,2023-11-28_15h19.03.311,semanticsuppression,2023.2.2,None,2023-11-28 15h19.09.244452 -0800,
86,1D,goat,boat,3,0,31,31,85,162.5522883340018,,,,,,,,,,,,,,,,,,,162.53956925001694,162.5522883340018,163.53982804200496,163.53982804200496,163.53982804200496,163.83712775001186,1.302834292408079,164.2383970420051,1.702130042394856,164.53722045899485,2.0024560423917137,166.60639479200472,4.069991375406971,166.62104370901943,None,409058,001,2023-11-28_15h19.03.311,semanticsuppression,2023.2.2,None,2023-11-28 15h19.09.244452 -0800,
183,Same,boat,boat,3,0,32,32,182,166.6283666670206,,,,,,,,,,,,,,,,,,,166.62200250002206,166.6283666670206,167.63697187500657,167.63697187500657,167.63697187500657,167.93545575000462,1.3053954594070092,168.3215027920087,1.691451417398639,168.63634595900658,2.006427375425119,170.70590658401488,4.0758357924059965,170.7061475420196,None,409058,001,2023-11-28_15h19.03.311,semanticsuppression,2023.2.2,None,2023-11-28 15h19.09.244452 -0800,
204,Different,goat,ship,3,0,33,33,203,170.71895595901879,,,,,,,,,,,,,,,,,,,170.7064571249939,170.71895595901879,171.7088024590048,171.7088024590048,171.7088024590048,172.02005400002236,1.310145125433337,172.4056206670066,1.7092902504373342,172.7027498340176,2.0092438344145194,174.78736708400538,4.077374625427183,174.7883974169963,None,409058,001,2023-11-28_15h19.03.311,semanticsuppression,2023.2.2,None,2023-11-28 15h19.09.244452 -0800,
191,Same,ship,ship,3,0,34,34,190,174.8025422920182,,,,,,,,,,,,,,,,,,,174.78947937500197,174.8025422920182,175.80226425,175.80226425,175.80226425,176.08922162500676,1.2991560424270574,176.5042426250002,1.6970595424354542,176.80222425001557,2.0009344174468424,,,178.87059158401098,None,409058,001,2023-11-28_15h19.03.311,semanticsuppression,2023.2.2,None,2023-11-28 15h19.09.244452 -0800,
47,Same,goat,goat,2,0,35,35,46,178.8857866670005,,,,,,,,,,,,,,,,,,,178.87162187500508,178.8857866670005,179.86912575000315,179.86912575000315,179.87452220902196,180.15583166701254,1.302633959450759,180.55682137500844,1.6991980844468344,180.8526009170164,1.999124250462046,182.952508959017,4.067074042453896,182.93820908400812,None,409058,001,2023-11-28_15h19.03.311,semanticsuppression,2023.2.2,None,2023-11-28 15h19.09.244452 -0800,
192,Different,chef,book,3,0,36,36,191,182.952508959017,,,,,,,,,,,,,,,,,,,182.93943308401504,182.952508959017,183.94047575001605,183.94047575001605,183.94047575001605,184.2358758750197,1.3022538344666827,184.641833458998,1.691782459471142,184.93587058401317,2.0025098754558712,187.019314959005,4.074949959467631,187.02522937499452,None,409058,001,2023-11-28_15h19.03.311,semanticsuppression,2023.2.2,None,2023-11-28 15h19.09.244452 -0800,
171,Same,ship,ship,3,0,37,37,170,187.03597158400225,,,,,,,,,,,,,,,,,,,187.0255252920033,187.03597158400225,188.02530804200796,188.02530804200796,188.02530804200796,188.324591667013,1.305875500489492,188.72476858401205,1.694736417470267,189.01931112501188,2.005826917476952,191.10261179201188,4.0745906254742295,191.10485699999845,None,409058,001,2023-11-28_15h19.03.311,semanticsuppression,2023.2.2,None,2023-11-28 15h19.09.244452 -0800,
67,Same,goat,goat,2,0,38,38,66,191.119227667019,,,,,,,,,,,,,,,,,,,191.1051800000132,191.119227667019,192.1093046250171,192.1093046250171,192.1093046250171,192.40617033399758,1.3091319174855016,192.82048520899843,1.6940382924803998,193.1191706249956,2.00911616749363,195.2026659999974,4.077407417498762,195.18833533400903,None,409058,001,2023-11-28_15h19.03.311,semanticsuppression,2023.2.2,None,2023-11-28 15h19.09.244452 -0800,
38,1D,book,cook,2,0,39,39,37,195.2026659999974,,,,,,,,,,,,,,,,,,,195.1893120839959,195.2026659999974,196.20255099999486,196.20255099999486,196.20255099999486,196.48938675000682,1.2993233755114488,196.88703987500048,1.6969822504906915,197.18595658399863,1.99945866750204,199.27543187499396,4.079254375508754,199.26958083402133,None,409058,001,2023-11-28_15h19.03.311,semanticsuppression,2023.2.2,None,2023-11-28 15h19.09.244452 -0800,
180,Different,chef,book,3,0,40,40,179,199.27543187499396,,,,,,,,,,,,,,,,,,,199.2698572090012,199.27543187499396,200.26927591700223,200.26927591700223,200.27329120901413,200.556129375007,1.2992986675235443,200.97086979201413,1.6837808755226433,201.27098250002018,2.001089834520826,203.34011087499675,,203.35365475001163,None,409058,001,2023-11-28_15h19.03.311,semanticsuppression,2023.2.2,None,2023-11-28 15h19.09.244452 -0800,
74,1D,cook,book,3,0,41,41,73,203.36016620902228,,,,,,,,,,,,,,,,,,,203.3545911250112,203.36016620902228,204.3527150840091,204.3527150840091,204.35729933402035,204.63838533399394,1.3025625005248003,205.03906020900467,1.6889985845191404,205.35263979202136,2.002587292518001,207.42817491700407,4.0699421255267225,207.42094625000027,None,409058,001,2023-11-28_15h19.03.311,semanticsuppression,2023.2.2,None,2023-11-28 15h19.09.244452 -0800,
158,1D,book,cook,2,0,42,42,157,207.42817491700407,,,,,,,,,,,,,,,,,,,207.42190220899647,207.42817491700407,208.43698162501096,208.43698162501096,208.43698162501096,208.73721175000537,1.3071477925404906,209.12571541700163,1.7071327925368678,209.4374557500123,2.007553667528555,211.520081167022,,211.5203657920065,None,409058,001,2023-11-28_15h19.03.311,semanticsuppression,2023.2.2,None,2023-11-28 15h19.09.244452 -0800,
135,Same,cook,cook,2,0,43,43,134,211.5265819170163,,,,,,,,,,,,,,,,,,,211.5211387500167,211.5265819170163,212.50614854201558,212.50614854201558,212.5222766250081,212.80417683400447,1.3103648755641188,213.20816466701217,1.6981106675521005,213.50584054199862,2.009172000543913,215.57273087502108,4.075910000537988,215.58618670899887,None,409058,001,2023-11-28_15h19.03.311,semanticsuppression,2023.2.2,None,2023-11-28 15h19.09.244452 -0800,
177,semanticR,chef,cook,2,0,44,44,176,215.59083275002195,,,,,,,,,,,,,,,,,,,215.58647350000683,215.59083275002195,216.58725583401974,216.58725583401974,216.58725583401974,216.88598020901554,1.2992982925788965,217.2859252920025,1.6958702505507972,217.57505191699602,2.000262834568275,219.65852070899564,4.079222084576031,219.66950158399413,None,409058,001,2023-11-28_15h19.03.311,semanticsuppression,2023.2.2,None,2023-11-28 15h19.09.244452 -0800,
165,semanticR,ship,boat,3,0,45,45,164,219.6752290840086,,,,,,,,,,,,,,,,,,,219.66979362501297,219.6752290840086,220.66082991700387,220.66082991700387,220.66925858400646,220.95501558401156,1.299250042589847,221.35930929202004,1.6892510845791548,221.66929341701325,1.9992393755819649,223.74198995900224,4.065977084566839,223.73623916701763,None,409058,001,2023-11-28_15h19.03.311,semanticsuppression,2023.2.2,None,2023-11-28 15h19.09.244452 -0800,
13,semanticR,cook,chef,2,0,46,46,12,223.74198995900224,,,,,,,,,,,,,,,,,,,223.73649462501635,223.74198995900224,224.7428887920105,224.7428887920105,224.7428887920105,225.03848758401,1.3025595425860956,225.4420667499944,1.6868780845834408,225.73795174999395,2.0025520845956635,227.8242642499972,4.069312209583586,227.81959529200685,None,409058,001,2023-11-28_15h19.03.311,semanticsuppression,2023.2.2,None,2023-11-28 15h19.09.244452 -0800,
115,Same,cook,cook,2,0,47,47,114,227.8242642499972,,,,,,,,,,,,,,,,,,,227.81989083401277,227.8242642499972,228.82642262501759,228.82642262501759,228.82642262501759,229.12167620900436,1.3060032096109353,229.52182504200027,1.7058766676054802,229.82056570900022,2.006736042589182,231.90259899999364,4.075790459610289,231.9060605840059,None,409058,001,2023-11-28_15h19.03.311,semanticsuppression,2023.2.2,None,2023-11-28 15h19.09.244452 -0800,
218,1D,book,cook,2,0,48,48,217,231.9192108749994,,,,,,,,,,,,,,,,,,,231.90653191701858,231.9192108749994,232.91927383400616,232.91927383400616,232.91927383400616,233.20641229199828,1.30926254260703,233.62044358401909,1.7105078346212395,233.91926437499933,2.009208000614308,235.99607033401844,4.076558417611523,235.98771545902127,None,409058,001,2023-11-28_15h19.03.311,semanticsuppression,2023.2.2,None,2023-11-28 15h19.09.244452 -0800,
100,Different,chef,book,3,0,49,49,99,235.99607033401844,,,,,,,,,,,,,,,,,,,235.98892250002245,235.99607033401844,236.98598912500893,236.98598912500893,236.9903753749968,237.27315141700092,1.2994299176207278,237.68894441699376,1.6958407096390147,237.9861859170196,2.0015332506154664,240.0568381670164,4.079983042640379,240.07095616700826,None,409058,001,2023-11-28_15h19.03.311,semanticsuppression,2023.2.2,None,2023-11-28 15h19.09.244452 -0800,
99,Same,chef,chef,2,0,50,50,98,240.07686341699446,,,,,,,,,,,,,,,,,,,240.0721507499984,240.07686341699446,241.05750600001193,241.05750600001193,241.07371654201415,241.35600008402253,1.2991787506325636,241.77072724999744,1.7006744176323991,242.05732641700888,1.9996517926338129,244.12358241699985,4.070564875641139,244.1408443340042,None,409058,001,2023-11-28_15h19.03.311,semanticsuppression,2023.2.2,None,2023-11-28 15h19.09.244452 -0800,
224,Different,goat,ship,3,0,51,51,223,244.15268200001447,,,,,,,,,,,,,,,,,,,244.1411222500028,244.15268200001447,245.14025212501292,245.14025212501292,245.14025212501292,245.43595008400735,1.3026115846587345,245.85380929202074,1.687315500661498,246.15417412499664,2.0042754176538438,248.20469470901298,,248.23771033401135,None,409058,001,2023-11-28_15h19.03.311,semanticsuppression,2023.2.2,None,2023-11-28 15h19.09.244452 -0800,
92,Different,chef,book,3,0,52,52,91,248.2527968750219,,,,,,,,,,,,,,,,,,,248.2379965420114,248.2527968750219,249.23625575000187,249.23625575000187,249.2418039170152,249.52347045901115,1.3059910426673014,249.92255591700086,1.6925184176652692,250.23719429201446,2.0072819176712073,252.30634429201018,4.076272042671917,252.30655170901446,None,409058,001,2023-11-28_15h19.03.311,semanticsuppression,2023.2.2,None,2023-11-28 15h19.09.244452 -0800,
28,Different,ship,goat,2,0,53,53,27,252.31933529200614,,,,,,,,,,,,,,,,,,,252.3068562920089,252.31933529200614,253.31938033399638,253.31938033399638,253.31938033399638,253.6064844590146,1.309368167683715,254.0082744170213,1.6982198756886646,254.3205158750061,2.010616334679071,256.39076995901996,,256.3908234999981,None,409058,001,2023-11-28_15h19.03.311,semanticsuppression,2023.2.2,None,2023-11-28 15h19.09.244452 -0800,
14,1D,cook,book,3,0,54,54,13,256.4026788750198,,,,,,,,,,,,,,,,,,,256.39108579201275,256.4026788750198,257.3860941250168,257.3860941250168,257.39051629201276,257.67172899999423,1.31276766769588,258.08619270901545,1.7016853347013239,258.3871192090155,2.0006166256789584,260.4562195840117,4.0792779176845215,260.4695727090002,None,409058,001,2023-11-28_15h19.03.311,semanticsuppression,2023.2.2,None,2023-11-28 15h19.09.244452 -0800,
209,semanticR,chef,cook,2,0,55,55,208,260.4755646249978,,,,,,,,,,,,,,,,,,,260.4699074590171,260.4755646249978,261.4593354590179,261.4593354590179,261.4695686250052,261.75707516699913,1.299477750697406,262.1553831670026,1.6853247097169515,262.4527372920129,1.9995272507076152,264.55283408399555,4.067356500716414,264.5383509590174,None,409058,001,2023-11-28_15h19.03.311,semanticsuppression,2023.2.2,None,2023-11-28 15h19.09.244452 -0800,
39,Same,chef,chef,2,0,56,56,38,264.55283408399555,,,,,,,,,,,,,,,,,,,264.5395359590184,264.55283408399555,265.54015641700244,265.54015641700244,265.54015641700244,265.836223292019,1.3026451257173903,266.2384943750221,1.7026352927205153,266.53625312499935,2.0027647927054204,268.60738783399574,4.069982000713935,268.62092312501045,None,409058,001,2023-11-28_15h19.03.311,semanticsuppression,2023.2.2,None,2023-11-28 15h19.09.244452 -0800,
63,Same,boat,boat,3,0,57,57,62,268.62926549999975,,,,,,,,,,,,,,,,,,,268.6220013750135,268.62926549999975,269.6370544170204,269.6370544170204,269.6370544170204,269.9239801670192,1.3075704177317675,270.3227069590066,1.706175459723454,270.6369809170137,2.007060750736855,272.7059545420052,4.075883250741754,272.7062222920067,None,409058,001,2023-11-28_15h19.03.311,semanticsuppression,2023.2.2,None,2023-11-28 15h19.09.244452 -0800,
119,Same,chef,chef,2,0,58,58,118,272.71954824999557,,,,,,,,,,,,,,,,,,,272.7065911249956,272.71954824999557,273.71956483399845,273.71956483399845,273.71956483399845,274.0053773340187,1.3095373347459827,274.42068883401225,1.7106315847486258,274.7079472920159,2.010012542741606,276.79445737501374,4.0772960847534705,276.7886442920135,None,409058,001,2023-11-28_15h19.03.311,semanticsuppression,2023.2.2,None,2023-11-28 15h19.09.244452 -0800,
132,Different,chef,book,3,0,59,59,131,276.79445737501374,,,,,,,,,,,,,,,,,,,276.7894312500139,276.79445737501374,277.8043801250169,277.8043801250169,277.8043801250169,278.1041504169989,1.3141104597598314,278.4862652090087,1.712774000770878,278.7738185840135,1.9999765427492093,,,280.87115354201524,None,409058,001,2023-11-28_15h19.03.311,semanticsuppression,2023.2.2,None,2023-11-28 15h19.09.244452 -0800,
32,Different,chef,book,3,0,60,60,31,280.88763112502056,,,,,,,,,,,,,,,,,,,280.87141716701444,280.88763112502056,281.85868679199484,281.85868679199484,281.8862236670102,282.1708773340215,1.3009536677564029,282.55548379200627,1.7017585847643204,282.85298029199475,2.000642792758299,284.93633787499857,4.066337667783955,284.9369563340151,None,409058,001,2023-11-28_15h19.03.311,semanticsuppression,2023.2.2,None,2023-11-28 15h19.09.244452 -0800,
125,semanticR,ship,boat,3,0,61,61,124,284.9427748339949,,,,,,,,,,,,,,,,,,,284.93726412500837,284.9427748339949,285.9417172920075,285.9417172920075,285.9417172920075,286.23951954199583,1.3028896257746965,286.6431478339946,1.6930994597787503,286.93947620899417,2.0042955427779816,289.0204139169946,,289.03719412500504,None,409058,001,2023-11-28_15h19.03.311,semanticsuppression,2023.2.2,None,2023-11-28 15h19.09.244452 -0800,
197,semanticR,chef,cook,2,0,62,62,196,289.04572712501977,,,,,,,,,,,,,,,,,,,289.0380094590073,289.04572712501977,290.023943334003,290.023943334003,290.0401514590194,290.3195613340067,1.3061261257971637,290.7253689170175,1.6953176677925512,291.02123729200684,2.007837042794563,293.09095387501293,,293.1205515000038,None,409058,001,2023-11-28_15h19.03.311,semanticsuppression,2023.2.2,None,2023-11-28 15h19.09.244452 -0800,
220,Different,chef,book,3,0,63,63,219,293.1265218339977,,,,,,,,,,,,,,,,,,,293.12131154199596,293.1265218339977,294.102957916999,294.102957916999,294.12367050000466,294.38819262501784,1.309703125822125,294.80809895900893,1.6980722508160397,295.12111295899376,2.0111693348153494,297.1728921670001,,297.2032962090161,None,409058,001,2023-11-28_15h19.03.311,semanticsuppression,2023.2.2,None,2023-11-28 15h19.09.244452 -0800,
137,semanticR,chef,cook,2,0,64,64,136,297.210295375,,,,,,,,,,,,,,,,,,,297.20407479201094,297.210295375,298.1862718750199,298.1862718750199,298.20710020899423,298.47225350001827,1.3128655008331407,298.88708016701275,1.7017990008171182,299.1871716250025,2.001728042814648,301.25728175000404,,301.2709201250109,None,409058,001,2023-11-28_15h19.03.311,semanticsuppression,2023.2.2,None,2023-11-28 15h19.09.244452 -0800,
121,semanticR,boat,ship,3,0,65,65,120,301.2802350000129,,,,,,,,,,,,,,,,,,,301.2717707499978,301.2802350000129,302.26971012499416,302.26971012499416,302.27383416701923,302.5563743750099,1.2995862508250866,302.9584529999993,1.6883976678363979,303.27074366700253,2.0008420428202953,305.33934591701836,4.069273750821594,305.33958770902245,None,409058,001,2023-11-28_15h19.03.311,semanticsuppression,2023.2.2,None,2023-11-28 15h19.09.244452 -0800,
105,semanticR,ship,boat,3,0,66,66,104,305.35287100001005,,,,,,,,,,,,,,,,,,,305.33986820900463,305.35287100001005,306.35293150000507,306.35293150000507,306.35293150000507,306.6404237920069,1.3029745008389,307.0431263339997,1.6930857508559711,307.34056841701386,2.0029887098353356,309.428151250002,4.070309125847416,309.42132954200497,None,409058,001,2023-11-28_15h19.03.311,semanticsuppression,2023.2.2,None,2023-11-28 15h19.09.244452 -0800,
11,Same,ship,ship,3,0,67,67,10,309.428151250002,,,,,,,,,,,,,,,,,,,309.4222157500044,309.428151250002,310.4263819589978,310.4263819589978,310.4263819589978,310.72151170900906,1.3064075428701472,311.13790825000615,1.6907532098703086,311.4371945000021,2.0072630008507986,313.52098216701415,,313.5211852090142,None,409058,001,2023-11-28_15h19.03.311,semanticsuppression,2023.2.2,None,2023-11-28 15h19.09.244452 -0800,
46,1D,goat,boat,3,0,68,68,45,313.536479041999,,,,,,,,,,,,,,,,,,,313.52196279200143,313.536479041999,314.50794366700575,314.50794366700575,314.5237557500077,314.80303875001846,1.3096359598857816,315.20871091700974,1.698652792867506,315.50830595899606,2.0095803348813206,317.573670917016,4.076362709864043,317.5866477920208,None,409058,001,2023-11-28_15h19.03.311,semanticsuppression,2023.2.2,None,2023-11-28 15h19.09.244452 -0800,
170,1D,book,cook,2,0,69,69,169,317.5918050420005,,,,,,,,,,,,,,,,,,,317.58691662500496,317.5918050420005,318.5878807090048,318.5878807090048,318.60322570899734,318.8755298340111,1.3008338348881807,319.28627754200716,1.696223375882255,319.5737458340009,2.013749917881796,321.6579025420069,,321.6704735000094,None,409058,001,2023-11-28_15h19.03.311,semanticsuppression,2023.2.2,None,2023-11-28 15h19.09.244452 -0800,
37,semanticR,chef,cook,2,0,70,70,36,321.67721833402175,,,,,,,,,,,,,,,,,,,321.6714253750106,321.67721833402175,322.66192566699465,322.66192566699465,322.6698026670201,322.95637420899584,1.2996770429017488,323.35663254201063,1.6865779598883819,323.6702621669974,2.000291417905828,325.7364094170043,4.070426792895887,325.74071137499413,None,409058,001,2023-11-28_15h19.03.311,semanticsuppression,2023.2.2,None,2023-11-28 15h19.09.244452 -0800,
153,semanticR,cook,chef,2,0,71,71,152,325.7530479170091,,,,,,,,,,,,,,,,,,,325.7410302500066,325.7530479170091,326.7531560420175,326.7531560420175,326.7531560420175,327.0391135420068,1.3042890429205727,327.454292792012,1.7043653349101078,327.74231100000907,2.0037227928987704,329.82914466701914,4.070428417908261,329.8213970840152,None,409058,001,2023-11-28_15h19.03.311,semanticsuppression,2023.2.2,None,2023-11-28 15h19.09.244452 -0800,
212,Different,chef,book,3,0,72,72,211,329.82914466701914,,,,,,,,,,,,,,,,,,,329.82233845899464,329.82914466701914,330.8366837920039,330.8366837920039,330.8366837920039,331.12381066702073,1.3064165429095738,331.5233196670015,1.6932578349369578,331.82405558400205,2.0071903759380803,333.91140450001694,4.073897750931792,333.9048260000127,None,409058,001,2023-11-28_15h19.03.311,semanticsuppression,2023.2.2,None,2023-11-28 15h19.09.244452 -0800,
205,semanticR,ship,boat,3,0,73,73,204,333.91140450001694,,,,,,,,,,,,,,,,,,,333.9056112499966,333.91140450001694,334.9198316250113,334.9198316250113,334.9198316250113,335.20730266699684,1.3097626259259414,335.6091485840152,1.6991001679270994,335.9084251669992,2.010713250929257,338.0031978750194,4.07819995994214,337.98934295901563,None,409058,001,2023-11-28_15h19.03.311,semanticsuppression,2023.2.2,None,2023-11-28 15h19.09.244452 -0800,
51,Same,ship,ship,3,0,74,74,50,338.0031978750194,,,,,,,,,,,,,,,,,,,337.99018458402134,338.0031978750194,339.0046141670027,339.0046141670027,339.0046141670027,339.3032269170217,1.3002498349524103,339.70398025002214,1.6974966259440407,339.9917020419962,2.001647167955525,,,342.07061154200346,None,409058,001,2023-11-28_15h19.03.311,semanticsuppression,2023.2.2,None,2023-11-28 15h19.09.244452 -0800,
71,Same,ship,ship,3,0,75,75,70,342.07576420900295,,,,,,,,,,,,,,,,,,,342.07148333400255,342.07576420900295,343.05883420901955,343.05883420901955,343.069801250007,343.3557739590178,1.299780834960984,343.7564409170009,1.6863850849622395,344.0532400000084,1.999807959975442,346.13775679201353,4.067778375960188,346.1389755420096,None,409058,001,2023-11-28_15h19.03.311,semanticsuppression,2023.2.2,None,2023-11-28 15h19.09.244452 -0800,
142,1D,boat,goat,2,0,76,76,141,346.1460952089983,,,,,,,,,,,,,,,,,,,346.1399828340218,346.1460952089983,347.1409961669997,347.1409961669997,347.1409961669997,347.43653100001393,1.3032552509685047,347.85472425000626,1.704838375968393,348.15489654202247,2.004978292970918,350.2208072920039,,350.23668970901053,None,409058,001,2023-11-28_15h19.03.311,semanticsuppression,2023.2.2,None,2023-11-28 15h19.09.244452 -0800,
107,Same,goat,goat,2,0,77,77,106,350.2408542089979,,,,,,,,,,,,,,,,,,,350.236959834001,350.2408542089979,351.22434729200904,351.22434729200904,351.23668666701997,351.5200349999941,1.3066145429911558,351.92576366700814,1.6957172099791933,352.2368287090212,2.0067720009828918,354.2907251249999,4.073251084977528,354.30352124999627,None,409058,001,2023-11-28_15h19.03.311,semanticsuppression,2023.2.2,None,2023-11-28 15h19.09.244452 -0800,
189,semanticR,chef,cook,2,0,78,78,188,354.3090830419969,,,,,,,,,,,,,,,,,,,354.3037933339947,354.3090830419969,355.3199830840167,355.3199830840167,355.3199830840167,355.60595829199883,1.3100562510080636,356.00575158401625,1.6956956679932773,356.3046584590047,2.01142933499068,358.3905821670196,,358.390626834007,None,409058,001,2023-11-28_15h19.03.311,semanticsuppression,2023.2.2,None,2023-11-28 15h19.09.244452 -0800,
193,semanticR,cook,chef,2,0,79,79,192,358.4033537500072,,,,,,,,,,,,,,,,,,,358.390937417018,358.4033537500072,359.4045142090181,359.4045142090181,359.4045142090181,359.7047697500093,1.3148035010090098,360.08676299999934,1.7133362510066945,360.37403170901234,2.0028579180070665,,,362.47087137500057,None,409058,001,2023-11-28_15h19.03.311,semanticsuppression,2023.2.2,None,2023-11-28 15h19.09.244452 -0800,
17,semanticR,chef,cook,2,0,80,80,16,362.47659312500036,,,,,,,,,,,,,,,,,,,362.4711928750039,362.47659312500036,363.47008512500906,363.47008512500906,363.47450037501403,363.75701395899523,1.3000134600151796,364.15841695902054,1.6883627510396764,364.4584595840133,2.0007643760181963,366.54264862500713,4.07263737602625,366.5436533339962,None,409058,001,2023-11-28_15h19.03.311,semanticsuppression,2023.2.2,None,2023-11-28 15h19.09.244452 -0800,
229,semanticR,chef,cook,2,0,81,81,228,366.5534593340126,,,,,,,,,,,,,,,,,,,366.5447817920067,366.5534593340126,367.5550801670179,367.5550801670179,367.5550801670179,367.8544181670004,1.3045011680515017,368.2549437090056,1.7048877510533202,368.55479808402015,2.0047455850290135,370.62482912500855,,370.63802454201505,None,409058,001,2023-11-28_15h19.03.311,semanticsuppression,2023.2.2,None,2023-11-28 15h19.09.244452 -0800,
122,1D,boat,goat,2,0,82,82,121,370.646287459007,,,,,,,,,,,,,,,,,,,370.63897208400886,370.646287459007,371.6277093340177,371.6277093340177,371.64072262501577,371.9226198749966,1.30671896005515,372.32429208399844,1.694233543064911,372.62131804201636,2.0073089180514216,374.70416287501575,4.074094876064919,374.7043839590042,None,409058,001,2023-11-28_15h19.03.311,semanticsuppression,2023.2.2,None,2023-11-28 15h19.09.244452 -0800,
133,semanticR,cook,chef,2,0,83,83,132,374.70975395900314,,,,,,,,,,,,,,,,,,,374.7046960000007,374.70975395900314,375.7202117090055,375.7202117090055,375.7202117090055,376.0213267500221,1.3113907510705758,376.4213543749938,1.7113058760587592,376.7090895420115,1.9990455850784201,378.7925445419969,4.076824001065688,378.78725166700315,None,409058,001,2023-11-28_15h19.03.311,semanticsuppression,2023.2.2,None,2023-11-28 15h19.09.244452 -0800,
103,Same,boat,boat,3,0,84,84,102,378.7925445419969,,,,,,,,,,,,,,,,,,,378.78764012499596,378.7925445419969,379.7868034169951,379.7868034169951,379.7868034169951,380.07633083401015,1.3023273350845557,380.48691270902054,1.696862168086227,380.77536554200924,2.002778793073958,382.85878599999705,,382.8701825000171,None,409058,001,2023-11-28_15h19.03.311,semanticsuppression,2023.2.2,None,2023-11-28 15h19.09.244452 -0800,
,,,,,,,,,382.87616529202205,,,,,,,,,,,,,,,,,,,382.87049579201266,382.87616529202205,383.85846133402083,383.85846133402083,383.87491591699654,384.15354508400196,1.3001513760827947,384.55931966699427,1.6892780850757845,384.85351591699873,2.000079293095041,,,,,,,,,,,,
