trial,condition,primeword,target,correctResp,repeats.thisRepN,repeats.thisTrialN,repeats.thisN,repeats.thisIndex,thisRow.t,notes,instructions.started,key_instruct.started,instructions.stopped,key_instruct.keys,key_instruct.rt,key_instruct.duration,longfix.started,startfixation.started,startfixation.stopped,longfix.stopped,trials.started,bwtrialsfixation.started,prime.started,key_resp.started,bwtrialsfixation.stopped,prime.stopped,filler.started,stimulus.started,filler.stopped,stimulus.stopped,filler2.started,trials.stopped,key_resp.keys,key_resp.rt,key_resp.duration,participant,session,date,expName,psychopyVersion,frameRate,expStart,
,,,,,,,,,,,0.005184167006518692,0.014327084005344659,3.2740157920052297,t,3.2426554999838118,None,,,,,,,,,,,,,,,,,,,,519285,001,2023-11-28_17h17.04.715,semanticsuppression,2023.2.2,None,2023-11-28 17h17.14.482511 -0800,
98,1D,book,cook,2,0,0,0,97,13.51008441700833,,,,,,,,3.274032958986936,3.283129208983155,13.51008441700833,13.468836166983237,13.502686208987143,13.51008441700833,14.471578917000443,14.471578917000443,14.503776083991397,14.766229875007411,1.3088991249969695,15.171230667008786,1.697227833996294,15.466222708986606,2.0088436249934603,16.566751250007655,2,2.09275974999764,None,519285,001,2023-11-28_17h17.04.715,semanticsuppression,2023.2.2,None,2023-11-28 17h17.14.482511 -0800,
156,Different,book,chef,2,0,1,1,155,16.575940833979985,,,,,,,,,,,,16.567521958990255,16.575940833979985,17.566302374994848,17.566302374994848,17.570756542001618,17.854208584001753,1.3029946250026114,18.2662491670053,1.6988918330171145,18.55349287498393,2.0028880830213893,19.00000420899596,2,1.432608875009464,None,519285,001,2023-11-28_17h17.04.715,semanticsuppression,2023.2.2,None,2023-11-28 17h17.14.482511 -0800,
138,1D,book,cook,2,0,2,2,137,19.00526216698927,,,,,,,,,,,,19.000392666988773,19.00526216698927,19.987724250007886,19.987724250007886,19.99960608399124,20.282885208987864,1.2992754579754546,20.68695916698198,1.686727874999633,20.9829072089924,1.9992674579843879,21.32060462498339,2,1.33199529198464,None,519285,001,2023-11-28_17h17.04.715,semanticsuppression,2023.2.2,None,2023-11-28 17h17.14.482511 -0800,
24,Different,goat,ship,3,0,3,3,23,21.332852374995127,,,,,,,,,,,,21.320958625001367,21.332852374995127,22.320533749996684,22.320533749996684,22.320533749996684,22.6162387499935,1.3005688750126865,23.016250416985713,1.6954520420113113,23.30371574999299,2.0003030420048162,23.716774583997903,3,1.3930037499812897,None,519285,001,2023-11-28_17h17.04.715,semanticsuppression,2023.2.2,None,2023-11-28 17h17.14.482511 -0800,
143,Same,boat,boat,3,0,4,4,142,23.724815916997613,,,,,,,,,,,,23.717148291994818,23.724815916997613,24.704488791991025,24.704488791991025,24.720562667003833,24.999619958980475,1.2992846249835566,25.403525834000902,1.6865355829941109,25.699579999985872,1.9992497499915771,26.30014162498992,3,1.585534333018586,None,519285,001,2023-11-28_17h17.04.715,semanticsuppression,2023.2.2,None,2023-11-28 17h17.14.482511 -0800,
216,Different,book,chef,2,0,5,5,215,26.30871429198305,,,,,,,,,,,,26.300534167006845,26.30871429198305,27.289504124986706,27.289504124986706,27.303848666982958,27.58735054198769,1.2991096659970935,27.98625095898751,1.68586091598263,28.282987749989843,1.999241040990455,28.80007066699909,2,1.5049932920082938,None,519285,001,2023-11-28_17h17.04.715,semanticsuppression,2023.2.2,None,2023-11-28 17h17.14.482511 -0800,
107,Same,goat,goat,2,0,6,6,106,28.80864558398025,,,,,,,,,,,,28.800474166986533,28.80864558398025,29.789415374980308,29.789415374980308,29.80398458399577,30.086811583983945,1.2992769999837037,30.486372499988647,1.686051333002979,30.782990334002534,1.9992991669860203,31.016713166987756,2,1.2242267909750808,None,519285,001,2023-11-28_17h17.04.715,semanticsuppression,2023.2.2,None,2023-11-28 17h17.14.482511 -0800,
73,semanticR,cook,chef,2,0,7,7,72,31.024353333981708,,,,,,,,,,,,31.017107083986048,31.024353333981708,32.00469395899563,32.00469395899563,32.02220341700013,32.29963995900471,1.2992852920142468,32.703143083985196,1.686215583991725,32.99958233398502,1.999439542007167,33.366951709002024,2,1.3523837499960791,None,519285,001,2023-11-28_17h17.04.715,semanticsuppression,2023.2.2,None,2023-11-28 17h17.14.482511 -0800,
145,semanticR,ship,boat,3,0,8,8,144,33.37532741698669,,,,,,,,,,,,33.367328458989505,33.37532741698669,34.3561507499835,34.3561507499835,34.37080737500219,34.65416183398338,1.2990862080187071,35.05305854199105,1.685908041021321,35.34972154200659,1.9992612909991294,35.76690041698748,3,1.4026832499948796,None,519285,001,2023-11-28_17h17.04.715,semanticsuppression,2023.2.2,None,2023-11-28 17h17.14.482511 -0800,
178,1D,book,cook,2,0,9,9,177,35.77570504200412,,,,,,,,,,,,35.767279874999076,35.77570504200412,36.75609291699948,36.75609291699948,36.77050566699472,37.053297709004255,1.299131166015286,37.454622916993685,1.687499708001269,37.75385000000824,1.9992575000214856,38.283786541986046,2,1.5212863750057295,None,519285,001,2023-11-28_17h17.04.715,semanticsuppression,2023.2.2,None,2023-11-28 17h17.14.482511 -0800,
50,1D,book,cook,2,0,10,10,49,38.2890697089897,,,,,,,,,,,,38.28428504199837,38.2890697089897,39.283069541997975,39.283069541997975,39.28759950000676,39.57149695898988,1.3029449579771608,39.97022529199603,1.699052916985238,40.26634387500235,2.003510207985528,40.55511016698438,2,1.2691999590024352,None,519285,001,2023-11-28_17h17.04.715,semanticsuppression,2023.2.2,None,2023-11-28 17h17.14.482511 -0800,
157,semanticR,chef,cook,2,0,11,11,156,40.56629904199508,,,,,,,,,,,,40.55550579199917,40.56629904199508,41.54972670899588,41.54972670899588,41.55420933399,41.836927208991256,1.2992492920020595,42.24972841699491,1.6943821669847239,42.537146416987525,2.0109686669893563,42.90014495898504,2,1.3396765410143416,None,519285,001,2023-11-28_17h17.04.715,semanticsuppression,2023.2.2,None,2023-11-28 17h17.14.482511 -0800,
181,semanticR,boat,ship,3,0,12,12,180,42.90806270900066,,,,,,,,,,,,42.900545374985086,42.90806270900066,43.888769666984444,43.888769666984444,43.903957458998775,44.18560429199715,1.299272625008598,44.58659320898005,1.6862065409950446,44.88304354198044,1.9993741660146043,45.217201083985856,3,1.3220635000034235,None,519285,001,2023-11-28_17h17.04.715,semanticsuppression,2023.2.2,None,2023-11-28 17h17.14.482511 -0800,
23,Same,boat,boat,3,0,13,13,22,45.224990583985345,,,,,,,,,,,,45.21764299998176,45.224990583985345,46.21642837498803,46.21642837498803,46.221163999987766,46.503849667002214,1.3028195420047268,46.9164086249948,1.6989455000148155,47.20258087498951,2.0012081669992767,47.666969541984145,3,1.4434767499915324,None,519285,001,2023-11-28_17h17.04.715,semanticsuppression,2023.2.2,None,2023-11-28 17h17.14.482511 -0800,
87,Same,goat,goat,2,0,14,14,86,47.675740292004775,,,,,,,,,,,,47.66733441699762,47.675740292004775,48.656090125004994,48.656090125004994,48.67060762498295,48.95252183399862,1.299225041992031,49.35447412499343,1.6872942080080975,49.653728874982335,1.9992002079961821,49.90561049999087,2,1.247273791988846,None,519285,001,2023-11-28_17h17.04.715,semanticsuppression,2023.2.2,None,2023-11-28 17h17.14.482511 -0800,
84,Different,goat,ship,3,0,15,15,83,49.9164545419917,,,,,,,,,,,,49.90596058400115,49.9164545419917,50.904320250003366,50.904320250003366,50.904320250003366,51.19972712500021,1.3105779160105158,51.59972079200088,1.697149207990151,51.88691258398467,2.0106257500010543,52.20030195900472,3,1.286466166988248,None,519285,001,2023-11-28_17h17.04.715,semanticsuppression,2023.2.2,None,2023-11-28 17h17.14.482511 -0800,
77,semanticR,chef,cook,2,0,16,16,76,52.20778233400779,,,,,,,,,,,,52.200725083996076,52.20778233400779,53.18865274998825,53.18865274998825,53.2037472089869,53.48848137498135,1.2992413330066483,53.886696750007104,1.6861586669983808,54.18315770899062,1.9992204169975594,54.51697833399521,2,1.3202661249961238,None,519285,001,2023-11-28_17h17.04.715,semanticsuppression,2023.2.2,None,2023-11-28 17h17.14.482511 -0800,
142,1D,boat,goat,2,0,17,17,141,54.52560054199421,,,,,,,,,,,,54.517394458991475,54.52560054199421,55.50457862499752,55.50457862499752,55.52057383398642,55.79977916699136,1.2991410420218017,56.20454524998786,1.6872995830199216,56.499708083982114,1.9992611670168117,56.821530124987476,2,1.3152028330077883,None,519285,001,2023-11-28_17h17.04.715,semanticsuppression,2023.2.2,None,2023-11-28 17h17.14.482511 -0800,
28,Different,ship,goat,2,0,18,18,27,56.8331117919879,,,,,,,,,,,,56.82191845899797,56.8331117919879,57.82103249998181,57.82103249998181,57.82103249998181,58.1164849170018,1.3113187499984633,58.51973616698524,1.6979860420105979,58.81644845899427,1.999798709002789,59.07091645899345,2,1.2488601249933708,None,519285,001,2023-11-28_17h17.04.715,semanticsuppression,2023.2.2,None,2023-11-28 17h17.14.482511 -0800,
159,Same,chef,chef,2,0,19,19,158,59.08314070900087,,,,,,,,,,,,59.07127462499193,59.08314070900087,60.072292458993616,60.072292458993616,60.072292458993616,60.36887120900792,1.3120123330154456,60.76638908399036,1.7017824999929871,61.05255129199941,2.011986124998657,61.25779133400647,2,1.1833641249977518,None,519285,001,2023-11-28_17h17.04.715,semanticsuppression,2023.2.2,None,2023-11-28 17h17.14.482511 -0800,
146,1D,goat,boat,3,0,20,20,145,61.26627620900399,,,,,,,,,,,,61.258300166984554,61.26627620900399,62.25478612500592,62.25478612500592,62.25478612500592,62.54977049998706,1.3083643749996554,62.95347520898213,1.7082800829957705,63.24988766698516,2.0083629580039997,63.60037845899933,3,1.3352856669807807,None,519285,001,2023-11-28_17h17.04.715,semanticsuppression,2023.2.2,None,2023-11-28 17h17.14.482511 -0800,
68,Different,ship,goat,2,0,21,21,67,63.60801741699106,,,,,,,,,,,,63.60081266699126,63.60801741699106,64.5879890419892,64.5879890419892,64.6038715839968,64.88313016699976,1.2992167499905918,65.28789725000388,1.6872677909850609,65.5832005419943,1.9991996659955475,65.80421695898985,2,1.2151728750031907,None,519285,001,2023-11-28_17h17.04.715,semanticsuppression,2023.2.2,None,2023-11-28 17h17.14.482511 -0800,
82,1D,boat,goat,2,0,22,22,81,65.81650091698975,,,,,,,,,,,,65.80456774999038,65.81650091698975,66.79985370900249,66.79985370900249,66.80584387498675,67.08666287499364,1.3121000409882981,67.49990695898305,1.7007408750068862,67.78715304200887,1.999475832999451,68.05033095899853,2,1.2459744589868933,None,519285,001,2023-11-28_17h17.04.715,semanticsuppression,2023.2.2,None,2023-11-28 17h17.14.482511 -0800,
153,semanticR,cook,chef,2,0,23,23,152,68.05991887499113,,,,,,,,,,,,68.05073037499096,68.05991887499113,69.03951637499267,69.03951637499267,69.0539203750086,69.3355962089845,1.2991907499963418,69.73857979199965,1.688022791990079,70.03657016699435,1.9993386249989271,70.42045512498589,2,1.3796645000111312,None,519285,001,2023-11-28_17h17.04.715,semanticsuppression,2023.2.2,None,2023-11-28 17h17.14.482511 -0800,
227,Same,goat,goat,2,0,24,24,226,70.4331895840005,,,,,,,,,,,,70.42082279198803,70.4331895840005,71.42480725000496,71.42480725000496,71.42480725000496,71.72003929200582,1.2993690830189735,72.12001620899537,1.69579754100414,72.41655525000533,2.0125330410082825,72.68369524998707,2,1.2533327499986626,None,519285,001,2023-11-28_17h17.04.715,semanticsuppression,2023.2.2,None,2023-11-28 17h17.14.482511 -0800,
180,Different,chef,book,3,0,25,25,179,72.69136008399073,,,,,,,,,,,,72.68408762500621,72.69136008399073,73.67191845900379,73.67191845900379,73.6873314169934,73.97129458398558,1.2993286249984521,74.37032558399369,1.699286042014137,74.66654837498209,1.9992821250052657,75.0688152090006,3,1.3874980839900672,None,519285,001,2023-11-28_17h17.04.715,semanticsuppression,2023.2.2,None,2023-11-28 17h17.14.482511 -0800,
140,Different,chef,book,3,0,26,26,139,75.07591824998963,,,,,,,,,,,,75.06981266700313,75.07591824998963,76.0665063339984,76.0665063339984,76.07093791698571,76.35350170900347,1.30171583298943,76.76651283400133,1.6969064580043778,77.05249145900598,2.0017338329926133,77.43367116700392,3,1.3655629999993835,None,519285,001,2023-11-28_17h17.04.715,semanticsuppression,2023.2.2,None,2023-11-28 17h17.14.482511 -0800,
171,Same,ship,ship,3,0,27,27,170,77.43969241698505,,,,,,,,,,,,77.4340305000078,77.43969241698505,78.4214667089982,78.4214667089982,78.43748437499744,78.71662412499427,1.299331665999489,79.11981633398682,1.6859362079994753,79.41662716699648,1.9993254999862984,79.78382687500562,3,1.355247875006171,None,519285,001,2023-11-28_17h17.04.715,semanticsuppression,2023.2.2,None,2023-11-28 17h17.14.482511 -0800,
231,Same,ship,ship,3,0,28,28,230,79.79038983400096,,,,,,,,,,,,79.7842038339877,79.79038983400096,80.77311345899943,80.77311345899943,80.78325283399317,81.07065099998727,1.299146249977639,81.47135016700486,1.6873092919995543,81.76658541700453,1.9991703749983571,82.08383849999518,3,1.3060252499999478,None,519285,001,2023-11-28_17h17.04.715,semanticsuppression,2023.2.2,None,2023-11-28 17h17.14.482511 -0800,
133,semanticR,cook,chef,2,0,29,29,132,82.09124370900099,,,,,,,,,,,,82.08426908400725,82.09124370900099,83.07178783399286,83.07178783399286,83.08725629199762,83.36913708399516,1.299185458017746,83.77014762500767,1.6860361660073977,84.06651312499889,1.9991402910090983,84.31687233399134,3,1.2442386250186246,None,519285,001,2023-11-28_17h17.04.715,semanticsuppression,2023.2.2,None,2023-11-28 17h17.14.482511 -0800,
118,1D,book,cook,2,0,30,30,117,84.32446954198531,,,,,,,,,,,,84.31727145900368,84.32446954198531,85.30479891700088,85.30479891700088,85.32044533398584,85.59995158400852,1.299452042003395,86.00444212500588,1.6873170000035316,86.30337070900714,1.999193750001723,86.650409208989,2,1.3351515000103973,None,519285,001,2023-11-28_17h17.04.715,semanticsuppression,2023.2.2,None,2023-11-28 17h17.14.482511 -0800,
223,Same,boat,boat,3,0,31,31,222,86.65819883398945,,,,,,,,,,,,86.65076008398319,86.65819883398945,87.63849237500108,87.63849237500108,87.65408804200706,87.93758304198855,1.2993387499882374,88.33702604199061,1.6864205420133658,88.63326145900646,1.9992782500048634,89.06701658398379,3,1.4242334160080645,None,519285,001,2023-11-28_17h17.04.715,semanticsuppression,2023.2.2,None,2023-11-28 17h17.14.482511 -0800,
13,semanticR,cook,chef,2,0,32,32,12,89.0746746250079,,,,,,,,,,,,89.06740374999936,89.0746746250079,90.05482104199473,90.05482104199473,90.07093958399491,90.34994029198424,1.2993139160098508,90.75361508398782,1.6863784579909407,91.04990437498782,1.9994483750197105,91.30590820900397,2,1.2480082919937558,None,519285,001,2023-11-28_17h17.04.715,semanticsuppression,2023.2.2,None,2023-11-28 17h17.14.482511 -0800,
161,semanticR,boat,ship,3,0,33,33,160,91.31637491699075,,,,,,,,,,,,91.3062398750044,91.31637491699075,92.30486466700677,92.30486466700677,92.30486466700677,92.6000461250078,1.3105212909867987,93.00503262499114,1.6989386249915697,93.30386433398235,2.0104471659869887,93.68380274999072,3,1.3717937500041444,None,519285,001,2023-11-28_17h17.04.715,semanticsuppression,2023.2.2,None,2023-11-28 17h17.14.482511 -0800,
31,Same,ship,ship,3,0,34,34,30,93.69015112498892,,,,,,,,,,,,93.68418658399605,93.69015112498892,94.67148474999703,94.67148474999703,94.68760508400737,94.9666260840022,1.2994173750048503,95.3700025419821,1.6859805000131018,95.66661874999409,1.9993063750152942,96.00041725000483,3,1.3198526249907445,None,519285,001,2023-11-28_17h17.04.715,semanticsuppression,2023.2.2,None,2023-11-28 17h17.14.482511 -0800,
2,1D,boat,goat,2,0,35,35,1,96.00821912498213,,,,,,,,,,,,96.00077529199189,96.00821912498213,96.98838712499128,96.98838712499128,97.00415058399085,97.28784595898469,1.2993165000225417,97.68697962499573,1.6863577089970931,97.98331529198913,1.999265334015945,98.3169174589857,2,1.3170896249939688,None,519285,001,2023-11-28_17h17.04.715,semanticsuppression,2023.2.2,None,2023-11-28 17h17.14.482511 -0800,
97,semanticR,chef,cook,2,0,36,36,96,98.3250223340001,,,,,,,,,,,,98.31732616698719,98.3250223340001,99.30628304198035,99.30628304198035,99.32099683399429,99.60390316700796,1.2994947920087725,100.00512570899446,1.6879618749953806,100.30284262498026,1.9992783750058152,100.58382283398532,2,1.2654022080241702,None,519285,001,2023-11-28_17h17.04.715,semanticsuppression,2023.2.2,None,2023-11-28 17h17.14.482511 -0800,
154,1D,cook,book,3,0,37,37,153,100.59244220898836,,,,,,,,,,,,100.58422791698831,100.59244220898836,101.57173649998731,101.57173649998731,101.58769183399272,101.86674958400545,1.2993022500013467,102.27044937500614,1.6864035000035074,102.56672104200698,1.9992871659924276,103.00045279198093,3,1.4231477090215776,None,519285,001,2023-11-28_17h17.04.715,semanticsuppression,2023.2.2,None,2023-11-28 17h17.14.482511 -0800,
20,Different,chef,book,3,0,38,38,19,103.00807362498017,,,,,,,,,,,,103.00088487498579,103.00807362498017,103.98935345900827,103.98935345900827,104.00419074998354,104.28573987499112,1.2993621249916032,104.68840341700707,1.6876888339756988,104.98680637500365,1.99925737499143,105.48385337498621,3,1.4818681250035297,None,519285,001,2023-11-28_17h17.04.715,semanticsuppression,2023.2.2,None,2023-11-28 17h17.14.482511 -0800,
38,1D,book,cook,2,0,39,39,37,105.49099945899798,,,,,,,,,,,,105.4842042499804,105.49099945899798,106.47291316700284,106.47291316700284,106.48752529200283,106.77056404200266,1.2992810840078164,107.17014679199201,1.686096000019461,107.46666904198355,1.9992637090035714,107.67217916698428,2,1.1964508750243112,None,519285,001,2023-11-28_17h17.04.715,semanticsuppression,2023.2.2,None,2023-11-28 17h17.14.482511 -0800,
132,Different,chef,book,3,0,40,40,131,107.68334270900232,,,,,,,,,,,,107.67261924999184,107.68334270900232,108.66673062500195,108.66673062500195,108.67171641698224,108.95467350000399,1.2993262079835404,109.36672987500788,1.6942859579867218,109.65396683398285,2.0108628329762723,109.98393849999411,3,1.3085872500087135,None,519285,001,2023-11-28_17h17.04.715,semanticsuppression,2023.2.2,None,2023-11-28 17h17.14.482511 -0800,
189,semanticR,chef,cook,2,0,41,41,188,109.9900169169996,,,,,,,,,,,,109.98428654199233,109.9900169169996,110.97197695900104,110.97197695900104,110.98918000000413,111.26666624998325,1.299261917010881,111.67023137499928,1.6860927500238176,111.96677279198775,1.9992762500187382,112.31824433399015,2,1.3325433749996591,None,519285,001,2023-11-28_17h17.04.715,semanticsuppression,2023.2.2,None,2023-11-28 17h17.14.482511 -0800,
52,Different,chef,book,3,0,42,42,51,112.33337904198561,,,,,,,,,,,,112.3191562090069,112.33337904198561,113.31650533399079,113.31650533399079,113.32236845899024,113.60411345900502,1.3015517909952905,114.0166956250032,1.6977458750188816,114.30466616700869,2.0002840000088327,114.60475108399987,3,1.286431457992876,None,519285,001,2023-11-28_17h17.04.715,semanticsuppression,2023.2.2,None,2023-11-28 17h17.14.482511 -0800,
126,1D,goat,boat,3,0,43,43,125,114.61675229200046,,,,,,,,,,,,114.60509933400317,114.61675229200046,115.60569066699827,115.60569066699827,115.60569066699827,115.90358204199583,1.3117232499935199,116.30359087500256,1.6986423339985777,116.6000507499848,1.9992188749893103,116.90410200000042,3,1.2974545829929411,None,519285,001,2023-11-28_17h17.04.715,semanticsuppression,2023.2.2,None,2023-11-28 17h17.14.482511 -0800,
17,semanticR,chef,cook,2,0,44,44,16,116.91679149999982,,,,,,,,,,,,116.90445916698081,116.91679149999982,117.90005900000688,117.90005900000688,117.90480595899862,118.18715604199679,1.2991737500124145,118.60005849998561,1.6957590420206543,118.88727120900876,2.0124594579974655,119.21725824999157,2,1.3135492919827811,None,519285,001,2023-11-28_17h17.04.715,semanticsuppression,2023.2.2,None,2023-11-28 17h17.14.482511 -0800,
18,1D,book,cook,2,0,45,45,17,119.22371354198549,,,,,,,,,,,,119.21763199998531,119.22371354198549,120.20523237498128,120.20523237498128,120.22252675000345,120.50448249999317,1.299245250003878,120.90380620898213,1.6863209159928374,121.20500245899893,1.9992178330139723,121.5172078750038,2,1.3011327080021147,None,519285,001,2023-11-28_17h17.04.715,semanticsuppression,2023.2.2,None,2023-11-28 17h17.14.482511 -0800,
93,semanticR,cook,chef,2,0,46,46,92,121.52570720898802,,,,,,,,,,,,121.5175942920032,121.52570720898802,122.5063522089913,122.5063522089913,122.5209222919948,122.80412862499361,1.2992624590115156,123.2036470839812,1.6862239170004614,123.50005916698137,1.9993660839973018,123.83386316700489,2,1.3153317910037003,None,519285,001,2023-11-28_17h17.04.715,semanticsuppression,2023.2.2,None,2023-11-28 17h17.14.482511 -0800,
128,Different,ship,goat,2,0,47,47,127,123.8416894999973,,,,,,,,,,,,123.83422670900472,123.8416894999973,124.82147033399087,124.82147033399087,124.83772508398397,125.116796916991,1.2993070000084117,125.5206688749895,1.6866098330065142,125.8167614589911,1.9993745409883559,126.10066366699175,2,1.2762641660228837,None,519285,001,2023-11-28_17h17.04.715,semanticsuppression,2023.2.2,None,2023-11-28 17h17.14.482511 -0800,
163,Same,boat,boat,3,0,48,48,162,126.1086779589823,,,,,,,,,,,,126.10105370898964,126.1086779589823,127.08877079200465,127.08877079200465,127.10424029198475,127.38695583399385,1.2991784999903757,127.78875754200271,1.68786249999539,128.0834331669903,1.9992157079977915,128.4005533339805,3,1.3020689590193797,None,519285,001,2023-11-28_17h17.04.715,semanticsuppression,2023.2.2,None,2023-11-28 17h17.14.482511 -0800,
63,Same,boat,boat,3,0,49,49,62,128.4053485839977,,,,,,,,,,,,128.40098979198956,128.4053485839977,129.38866962498287,129.38866962498287,129.40009300000384,129.68705737500568,1.2993155000149272,130.08707445900654,1.6862353750038892,130.3887560419971,1.9992666670004837,130.68393804199877,3,1.290382374980254,None,519285,001,2023-11-28_17h17.04.715,semanticsuppression,2023.2.2,None,2023-11-28 17h17.14.482511 -0800,
177,semanticR,chef,cook,2,0,50,50,176,130.6918891670066,,,,,,,,,,,,130.68434908398194,130.6918891670066,131.6717427499825,131.6717427499825,131.6879009589902,131.9667163749982,1.2992975420202129,132.37061675000587,1.6864740830205847,132.66681487500318,1.9992867080145516,132.96729320898885,2,1.2871762080176268,None,519285,001,2023-11-28_17h17.04.715,semanticsuppression,2023.2.2,None,2023-11-28 17h17.14.482511 -0800,
130,1D,book,cook,2,0,51,51,129,132.97375279199332,,,,,,,,,,,,132.96772729200893,132.97375279199332,133.95526829198934,133.95526829198934,133.9728968339914,134.2501440839842,1.2992265000066254,134.6535860419972,1.68602424999699,134.95017904200358,1.9992055000038818,135.22285020898562,2,1.2646071659983136,None,519285,001,2023-11-28_17h17.04.715,semanticsuppression,2023.2.2,None,2023-11-28 17h17.14.482511 -0800,
5,semanticR,ship,boat,3,0,52,52,4,135.23345270898426,,,,,,,,,,,,135.22342341698823,135.23345270898426,136.22150270899874,136.22150270899874,136.22150270899874,136.5168956249836,1.3102425840042997,136.9205293749983,1.6972878340166062,137.2168137920089,2.010206917009782,137.53387920898967,3,1.3100956249982119,None,519285,001,2023-11-28_17h17.04.715,semanticsuppression,2023.2.2,None,2023-11-28 17h17.14.482511 -0800,
114,1D,cook,book,3,0,53,53,113,137.54150062499684,,,,,,,,,,,,137.53427537498646,137.54150062499684,138.52186995898956,138.52186995898956,138.53926454199245,138.82162199998857,1.299308582994854,139.22045191700454,1.6863407079945318,139.51680199999828,1.9992644159938209,139.88394170900574,3,1.350183916016249,None,519285,001,2023-11-28_17h17.04.715,semanticsuppression,2023.2.2,None,2023-11-28 17h17.14.482511 -0800,
131,Same,ship,ship,3,0,54,54,130,139.89240874999086,,,,,,,,,,,,139.8844091249921,139.89240874999086,140.87340241699712,140.87340241699712,140.88775095899473,141.169524041994,1.2993532910186332,141.57031045900658,1.6861517500074115,141.86690445899148,1.9993530409992673,142.40175354198436,3,1.5227129999839235,None,519285,001,2023-11-28_17h17.04.715,semanticsuppression,2023.2.2,None,2023-11-28 17h17.14.482511 -0800,
71,Same,ship,ship,3,0,55,55,70,142.40802395899664,,,,,,,,,,,,142.40214916699915,142.40802395899664,143.4001814170042,143.4001814170042,143.4045080000069,143.68786437498056,1.3033499580051284,144.10014999998384,1.6981650000088848,144.38736562500708,2.0016803750186227,144.5545394590008,3,1.1531827499857172,None,519285,001,2023-11-28_17h17.04.715,semanticsuppression,2023.2.2,None,2023-11-28 17h17.14.482511 -0800,
176,Different,book,chef,2,0,56,56,175,144.56689504199312,,,,,,,,,,,,144.55488999999943,144.56689504199312,145.55602983399876,145.55602983399876,145.55602983399876,145.85460312498617,1.299864250002429,146.2501632089843,1.6954350830055773,146.5375891669828,1.999446915986482,146.91736479199608,2,1.3500058749923483,None,519285,001,2023-11-28_17h17.04.715,semanticsuppression,2023.2.2,None,2023-11-28 17h17.14.482511 -0800,
53,semanticR,cook,chef,2,0,57,57,52,146.9243315839849,,,,,,,,,,,,146.91779033400235,146.9243315839849,147.90562641699216,147.90562641699216,147.92112770900712,148.2037341670075,1.2994535420148168,148.6037810840062,1.6861688329954632,148.90024970899685,1.9992443330120295,149.25081970900646,2,1.3385534590051975,None,519285,001,2023-11-28_17h17.04.715,semanticsuppression,2023.2.2,None,2023-11-28 17h17.14.482511 -0800,
76,Different,book,chef,2,0,58,58,75,149.2590966669959,,,,,,,,,,,,149.25123320898274,149.2590966669959,150.238607709005,150.238607709005,150.25461979198735,150.53362649999326,1.299227833020268,150.9381730419991,1.6991528330254368,151.23600245898706,1.9991285830037668,151.4673509169952,2,1.2243513750145212,None,519285,001,2023-11-28_17h17.04.715,semanticsuppression,2023.2.2,None,2023-11-28 17h17.14.482511 -0800,
37,semanticR,chef,cook,2,0,59,59,36,151.47634087500046,,,,,,,,,,,,151.46777554199798,151.47634087500046,152.45664462499553,152.45664462499553,152.4714041670086,152.75493912500679,1.2992980000271928,153.1539587090083,1.6863670000166167,153.45033950000652,1.9993998749996535,153.71734808399924,2,1.2500489580270369,None,519285,001,2023-11-28_17h17.04.715,semanticsuppression,2023.2.2,None,2023-11-28 17h17.14.482511 -0800,
151,Same,ship,ship,3,0,60,60,150,153.72572658400168,,,,,,,,,,,,153.71779537500697,153.72572658400168,154.70549120899523,154.70549120899523,154.72142250000616,155.00028670899337,1.2992630829976406,155.4039636249945,1.6863422080059536,155.70028950000415,1.999350375001086,155.8714441669872,3,1.1644455409841612,None,519285,001,2023-11-28_17h17.04.715,semanticsuppression,2023.2.2,None,2023-11-28 17h17.14.482511 -0800,
221,semanticR,boat,ship,3,0,61,61,220,155.88366999998107,,,,,,,,,,,,155.8717870840046,155.88366999998107,156.86696516699158,156.86696516699158,156.87186079198727,157.1543418749934,1.3120014169835486,157.5669750419911,1.69960004198947,157.8541494999954,1.999471666989848,158.20433649999904,3,1.335868833004497,None,519285,001,2023-11-28_17h17.04.715,semanticsuppression,2023.2.2,None,2023-11-28 17h17.14.482511 -0800,
119,Same,chef,chef,2,0,62,62,118,158.2170046249812,,,,,,,,,,,,158.20474595899577,158.2170046249812,159.20027529200888,159.20027529200888,159.20469683400006,159.48771516699344,1.299536500009708,159.90028450000682,1.6957035420055036,160.18650716700358,2.0123751670180354,160.4174855419842,2,1.2038878329913132,None,519285,001,2023-11-28_17h17.04.715,semanticsuppression,2023.2.2,None,2023-11-28 17h17.14.482511 -0800,
204,Different,goat,ship,3,0,63,63,203,160.42488716699881,,,,,,,,,,,,160.41797300000326,160.42488716699881,161.40529408399016,161.40529408399016,161.42294979200233,161.70044395898003,1.2992430419835728,162.10375033400487,1.6860029579838738,162.40023570900667,1.9992122919938993,162.73768016698887,3,1.3315542910131626,None,519285,001,2023-11-28_17h17.04.715,semanticsuppression,2023.2.2,None,2023-11-28 17h17.14.482511 -0800,
197,semanticR,chef,cook,2,0,64,64,196,162.75037379199057,,,,,,,,,,,,162.73805104198982,162.75037379199057,163.7337051249924,163.7337051249924,163.73819699999876,164.02064837500802,1.300618624984054,164.43322058400372,1.6953527079895139,164.7199988339853,2.0004687079926953,165.23430345900124,2,1.4959948750038166,None,519285,001,2023-11-28_17h17.04.715,semanticsuppression,2023.2.2,None,2023-11-28 17h17.14.482511 -0800,
193,semanticR,cook,chef,2,0,65,65,192,165.24253920899355,,,,,,,,,,,,165.2346859999816,165.24253920899355,166.22240970900748,166.22240970900748,166.23787383400486,166.52116737500182,1.2991200829856098,166.92067387499264,1.6991656250029337,167.21705908398144,1.9991215000045486,167.617650375003,2,1.3860735410125926,None,519285,001,2023-11-28_17h17.04.715,semanticsuppression,2023.2.2,None,2023-11-28 17h17.14.482511 -0800,
8,Different,ship,goat,2,0,66,66,7,167.62656133400742,,,,,,,,,,,,167.6181795419834,167.62656133400742,168.61697699999786,168.61697699999786,168.6214625419816,168.90278829200543,1.3036344999854919,169.31690341699868,1.6988853339862544,169.60434499999974,1.9990436249936465,170.20084687499912,2,1.5796397079830058,None,519285,001,2023-11-28_17h17.04.715,semanticsuppression,2023.2.2,None,2023-11-28 17h17.14.482511 -0800,
144,Different,goat,ship,3,0,67,67,143,170.2089367499866,,,,,,,,,,,,170.2012291669962,170.2089367499866,171.1887928750075,171.1887928750075,171.20616183400853,171.48368566698628,1.299274457996944,171.88742716700654,1.6863700000103563,172.183704458992,1.9992263750173151,172.48411533399485,3,1.2936824159987736,None,519285,001,2023-11-28_17h17.04.715,semanticsuppression,2023.2.2,None,2023-11-28 17h17.14.482511 -0800,
136,Different,book,chef,2,0,68,68,135,172.48974354198435,,,,,,,,,,,,172.48450320900884,172.48974354198435,173.47206162498333,173.47206162498333,173.4896307089948,173.76705483399564,1.2993402919964865,174.17047924999497,1.6861543749982957,174.4670237499813,1.9994165419775527,174.8522737500025,2,1.3725507910130545,None,519285,001,2023-11-28_17h17.04.715,semanticsuppression,2023.2.2,None,2023-11-28 17h17.14.482511 -0800,
172,Different,chef,book,3,0,69,69,171,174.86706362498808,,,,,,,,,,,,174.85265858398634,174.86706362498808,175.85046449999209,175.85046449999209,175.85491141700186,176.13744291698094,1.302942374983104,176.550434417004,1.6979432919761166,176.83748070898582,2.002811458980432,177.26759825000772,3,1.411305125016952,None,519285,001,2023-11-28_17h17.04.715,semanticsuppression,2023.2.2,None,2023-11-28 17h17.14.482511 -0800,
209,semanticR,chef,cook,2,0,70,70,208,177.27449612499913,,,,,,,,,,,,177.2680252919963,177.27449612499913,178.25555133400485,178.25555133400485,178.2714510000078,178.55042308400152,1.2992223750043195,178.9539177499828,1.6860691249894444,179.25043212500168,1.9991991249844432,179.53423808398657,2,1.276745207986096,None,519285,001,2023-11-28_17h17.04.715,semanticsuppression,2023.2.2,None,2023-11-28 17h17.14.482511 -0800,
15,Same,cook,cook,2,0,71,71,14,179.54055375000462,,,,,,,,,,,,179.5346584589861,179.54055375000462,180.5219963339914,180.5219963339914,180.53780254200683,180.81700512499083,1.2992955410154536,181.22063729199,1.686146041000029,181.51714899999206,1.9992461660003755,181.70085850000032,2,1.1743176250020042,None,519285,001,2023-11-28_17h17.04.715,semanticsuppression,2023.2.2,None,2023-11-28 17h17.14.482511 -0800,
207,Same,goat,goat,2,0,72,72,206,181.70863154198742,,,,,,,,,,,,181.70124674998806,181.70863154198742,182.68908229199587,182.68908229199587,182.70457499998156,182.98739112500334,1.2992639580043033,183.387278374983,1.6993047499854583,183.68373074999545,1.999390000011772,183.8380567499844,2,1.147312667017104,None,519285,001,2023-11-28_17h17.04.715,semanticsuppression,2023.2.2,None,2023-11-28 17h17.14.482511 -0800,
167,Same,goat,goat,2,0,73,73,166,183.8504887500021,,,,,,,,,,,,183.8384155840031,183.8504887500021,184.83380674998625,184.83380674998625,184.83824908398674,185.12400508398423,1.2994523750094231,185.53371062499355,1.6957498329866212,185.82189012499293,1.9996867080044467,186.03440079200664,2,1.188358249986777,None,519285,001,2023-11-28_17h17.04.715,semanticsuppression,2023.2.2,None,2023-11-28 17h17.14.482511 -0800,
32,Different,chef,book,3,0,74,74,31,186.04270879199612,,,,,,,,,,,,186.03475166700082,186.04270879199612,187.02347870898666,187.02347870898666,187.03832474999945,187.3202425839845,1.2991014580184128,187.7219679169939,1.6873636250093114,188.01716324998415,1.9992069580184761,188.38434925000183,3,1.3551211250014603,None,519285,001,2023-11-28_17h17.04.715,semanticsuppression,2023.2.2,None,2023-11-28 17h17.14.482511 -0800,
203,Same,boat,boat,3,0,75,75,202,188.39194604198565,,,,,,,,,,,,188.3847762089863,188.39194604198565,189.37246487499215,189.37246487499215,189.38783249998232,189.6713453340053,1.2992214580008294,190.07220437499927,1.6876054579915944,190.36945629198453,1.9991882909962442,190.61760041699745,3,1.2391688329807948,None,519285,001,2023-11-28_17h17.04.715,semanticsuppression,2023.2.2,None,2023-11-28 17h17.14.482511 -0800,
115,Same,cook,cook,2,0,76,76,114,190.62520512499032,,,,,,,,,,,,190.61798754200572,190.62520512499032,191.60555733399815,191.60555733399815,191.62125316698803,191.9004721249803,1.2992618329881225,192.30398212498403,1.6861510829767212,192.6004497499962,1.9992384579963982,192.76762537498144,2,1.1532354580122046,None,519285,001,2023-11-28_17h17.04.715,semanticsuppression,2023.2.2,None,2023-11-28 17h17.14.482511 -0800,
59,Same,chef,chef,2,0,77,77,58,192.7756713340059,,,,,,,,,,,,192.76800049998565,192.7756713340059,193.75720066699432,193.75720066699432,193.77141404198483,194.05428495898377,1.2994042499922216,194.45406370898127,1.686221166019095,194.75053774999105,1.999339541012887,194.9177024999808,2,1.1532201250083745,None,519285,001,2023-11-28_17h17.04.715,semanticsuppression,2023.2.2,None,2023-11-28 17h17.14.482511 -0800,
127,Same,goat,goat,2,0,78,78,126,194.9262738339894,,,,,,,,,,,,194.91812275000848,194.9262738339894,195.91667720899568,195.91667720899568,195.92060316700372,196.20557274998282,1.2992248749942519,196.6044007499877,1.6864476669870783,196.9005947090045,1.9992264169850387,197.05103483400308,2,1.1266806249914225,None,519285,001,2023-11-28_17h17.04.715,semanticsuppression,2023.2.2,None,2023-11-28 17h17.14.482511 -0800,
149,semanticR,chef,cook,2,0,79,79,148,197.0586677499814,,,,,,,,,,,,197.051408542,197.0586677499814,198.03897433399106,198.03897433399106,198.05501433400786,198.33375116699608,1.29927950000274,198.73713329198654,1.6858996670052875,199.03388016700046,1.999264417012455,199.18956624998827,2,1.1477374590176623,None,519285,001,2023-11-28_17h17.04.715,semanticsuppression,2023.2.2,None,2023-11-28 17h17.14.482511 -0800,
185,semanticR,ship,boat,3,0,80,80,184,199.20050549998996,,,,,,,,,,,,199.18997820900404,199.20050549998996,200.1840827499982,200.1840827499982,200.18991537499824,200.47111099999165,1.3106677919859067,200.8875651669805,1.710715541994432,201.18388666698593,2.0106892499898095,201.73537437498453,3,1.536597750004148,None,519285,001,2023-11-28_17h17.04.715,semanticsuppression,2023.2.2,None,2023-11-28 17h17.14.482511 -0800,
208,Different,ship,goat,2,0,81,81,207,201.74316458398243,,,,,,,,,,,,201.73578895899118,201.74316458398243,202.73381862498354,202.73381862498354,202.7380689169804,203.02134937499068,1.3005602080083918,203.43391991700628,1.698306208010763,203.7211014170025,2.0003676670021378,204.03449154199916,2,1.289507292007329,None,519285,001,2023-11-28_17h17.04.715,semanticsuppression,2023.2.2,None,2023-11-28 17h17.14.482511 -0800,
34,1D,cook,book,3,0,82,82,33,204.04280941700563,,,,,,,,,,,,204.034928167006,204.04280941700563,205.0224763340084,205.0224763340084,205.03798324998934,205.3194940839894,1.303963834012393,205.7224678339844,1.6990287500084378,206.0207092089986,1.9991027920041233,206.38826620898908,3,1.3643495840078685,None,519285,001,2023-11-28_17h17.04.715,semanticsuppression,2023.2.2,None,2023-11-28 17h17.14.482511 -0800,
108,Different,ship,goat,2,0,83,83,107,206.40056437498424,,,,,,,,,,,,206.3886387090024,206.40056437498424,207.38838795898482,207.38838795898482,207.38838795898482,207.68394579199958,1.312063749996014,208.08394983399194,1.6984116660023574,208.36979120899923,1.9997461659950204,208.68769387499196,2,1.2977022920094896,None,519285,001,2023-11-28_17h17.04.715,semanticsuppression,2023.2.2,None,2023-11-28 17h17.14.482511 -0800,
192,Different,chef,book,3,0,84,84,191,208.70065629199962,,,,,,,,,,,,208.68805837500258,208.70065629199962,209.69005449998076,209.69005449998076,209.69005449998076,209.988028458989,1.3001228329958394,210.38887704198714,1.6959804170182906,210.68642099999124,2.0125855000223964,211.01769237499684,3,1.3239205410063732,None,519285,001,2023-11-28_17h17.04.715,semanticsuppression,2023.2.2,None,2023-11-28 17h17.14.482511 -0800,
137,semanticR,chef,cook,2,0,85,85,136,211.02408549998654,,,,,,,,,,,,211.0180745839898,211.02408549998654,212.00540379199083,212.00540379199083,212.02165137499105,212.30056679199333,1.2991091670119204,212.70403395898757,1.6861142920097336,213.0006051249802,1.9992923749960028,213.28578020900022,2,1.2695705409860238,None,519285,001,2023-11-28_17h17.04.715,semanticsuppression,2023.2.2,None,2023-11-28 17h17.14.482511 -0800,
7,Same,goat,goat,2,0,86,86,6,213.29384341699188,,,,,,,,,,,,213.28634337498806,213.29384341699188,214.283961292007,214.283961292007,214.28844766700058,214.57268408400705,1.3018334159860387,214.9839442090015,1.6977987499849405,215.2707239589945,2.0015762909897603,215.55646904199966,2,1.2705986249784473,None,519285,001,2023-11-28_17h17.04.715,semanticsuppression,2023.2.2,None,2023-11-28 17h17.14.482511 -0800,
229,semanticR,chef,cook,2,0,87,87,228,215.56735991698224,,,,,,,,,,,,215.5568602499843,215.56735991698224,216.5550625420001,216.5550625420001,216.5550625420001,216.85060637499555,1.2991112080053426,217.2543352089997,1.6939293750037905,217.55057824999676,1.999411541997688,217.82146237499546,2,1.2657532909943257,None,519285,001,2023-11-28_17h17.04.715,semanticsuppression,2023.2.2,None,2023-11-28 17h17.14.482511 -0800,
174,1D,cook,book,3,0,88,88,173,217.8339100839803,,,,,,,,,,,,217.8218588339805,217.8339100839803,218.82190174999414,218.82190174999414,218.82190174999414,219.11728824998136,1.2992279999889433,219.51726849999977,1.6955864999908954,219.80567333399085,1.9996330410067458,220.15118912499747,3,1.3193262499989942,None,519285,001,2023-11-28_17h17.04.715,semanticsuppression,2023.2.2,None,2023-11-28 17h17.14.482511 -0800,
112,Different,chef,book,3,0,89,89,111,220.15762712500873,,,,,,,,,,,,220.15169566698023,220.15762712500873,221.1390706670063,221.1390706670063,221.15512124999077,221.4339487089892,1.2990782500128262,221.85064495899132,1.6863208330178168,222.13757641700795,1.9990145410120022,222.45623499999056,3,1.3165875420090742,None,519285,001,2023-11-28_17h17.04.715,semanticsuppression,2023.2.2,None,2023-11-28 17h17.14.482511 -0800,
91,Same,ship,ship,3,0,90,90,90,222.4673078749911,,,,,,,,,,,,222.45663670898648,222.4673078749911,223.45062112499727,223.45062112499727,223.45512974998564,223.73649408400524,1.3108453750028275,224.15061716700438,1.6974654999794438,224.43778350000503,2.0107694169855677,224.60101933398983,3,1.1438522500102408,None,519285,001,2023-11-28_17h17.04.715,semanticsuppression,2023.2.2,None,2023-11-28 17h17.14.482511 -0800,
226,1D,goat,boat,3,0,91,91,225,224.60826258399175,,,,,,,,,,,,224.60138725000434,224.60826258399175,225.5889576250047,225.5889576250047,225.60667574999388,225.8840398750035,1.299421000003349,226.2874791249924,1.6862586670031305,226.58400212498964,1.9994283340056427,226.90108408400556,3,1.306490582996048,None,519285,001,2023-11-28_17h17.04.715,semanticsuppression,2023.2.2,None,2023-11-28 17h17.14.482511 -0800,
102,1D,boat,goat,2,0,92,92,101,226.90955695899902,,,,,,,,,,,,226.9014532500005,226.90955695899902,227.8906482500024,227.8906482500024,227.90517124999315,228.18782695900882,1.2993552919942886,228.58761049999157,1.686314541992033,228.8839656249911,1.9992875829921104,229.14014775000396,2,1.2488134159939364,None,519285,001,2023-11-28_17h17.04.715,semanticsuppression,2023.2.2,None,2023-11-28 17h17.14.482511 -0800,
78,1D,book,cook,2,0,93,93,77,229.15059824998025,,,,,,,,,,,,229.14051316698897,229.15059824998025,230.1339164999954,230.1339164999954,230.13882770898635,230.4208028340072,1.3103186250082217,230.83772845898056,1.6973859579884447,231.13400866699521,2.010292124992702,231.30520754199824,2,1.1696176659897901,None,519285,001,2023-11-28_17h17.04.715,semanticsuppression,2023.2.2,None,2023-11-28 17h17.14.482511 -0800,
9,semanticR,chef,cook,2,0,94,94,8,231.31716750000487,,,,,,,,,,,,231.30558504199143,231.31716750000487,232.3006914590078,232.3006914590078,232.30501508398447,232.58788762500626,1.3120020409987774,233.00606308400165,1.7006421250116546,233.3032976249815,2.011741708003683,233.55114754199167,2,1.2463432920048945,None,519285,001,2023-11-28_17h17.04.715,semanticsuppression,2023.2.2,None,2023-11-28 17h17.14.482511 -0800,
125,semanticR,ship,boat,3,0,95,95,124,233.55903883400606,,,,,,,,,,,,233.55154124999535,233.55903883400606,234.5392637499899,234.5392637499899,234.55464529199526,234.83816987500177,1.299331540998537,235.2375944170053,1.6862205409852322,235.53399954200722,1.9992954579938669,235.90112041699467,3,1.357748750015162,None,519285,001,2023-11-28_17h17.04.715,semanticsuppression,2023.2.2,None,2023-11-28 17h17.14.482511 -0800,
81,semanticR,boat,ship,3,0,96,96,80,235.90941687498707,,,,,,,,,,,,235.90155295899604,235.90941687498707,236.88895508399582,236.88895508399582,236.9067280839954,237.18398029200034,1.2992444999981672,237.58744629198918,1.6860593339952175,237.8839885419875,1.9992435419990215,238.20121050000307,3,1.3104213330079801,None,519285,001,2023-11-28_17h17.04.715,semanticsuppression,2023.2.2,None,2023-11-28 17h17.14.482511 -0800,
47,Same,goat,goat,2,0,97,97,46,238.21007037500385,,,,,,,,,,,,238.20162304199766,238.21007037500385,239.19033787498483,239.19033787498483,239.2051209170022,239.48784804198658,1.2992320839839522,239.88776679200237,1.6863008340005763,240.18414008399122,1.9992556670040358,240.46776333398884,2,1.2750669170054607,None,519285,001,2023-11-28_17h17.04.715,semanticsuppression,2023.2.2,None,2023-11-28 17h17.14.482511 -0800,
113,semanticR,cook,chef,2,0,98,98,112,240.47537075000582,,,,,,,,,,,,240.4681390839978,240.47537075000582,241.45554908399936,241.45554908399936,241.47299508398282,241.7506330839824,1.299412416992709,242.154417541984,1.686453749978682,242.4506714589952,1.9994053749833256,242.75126083398936,2,1.2879649579990655,None,519285,001,2023-11-28_17h17.04.715,semanticsuppression,2023.2.2,None,2023-11-28 17h17.14.482511 -0800,
158,1D,book,cook,2,0,99,99,157,242.7593592919875,,,,,,,,,,,,242.7517064169806,242.7593592919875,243.73898037499748,243.73898037499748,243.75676329198177,244.034116291994,1.2991949999995995,244.4376680419955,1.6861486249836162,244.73411324998597,1.9992095420020632,244.9042126669956,2,1.1522906250029337,None,519285,001,2023-11-28_17h17.04.715,semanticsuppression,2023.2.2,None,2023-11-28 17h17.14.482511 -0800,
165,semanticR,ship,boat,3,0,100,100,164,244.91751633398235,,,,,,,,,,,,244.90554424998118,244.91751633398235,245.90566324998508,245.90566324998508,245.90566324998508,246.20072533399798,1.3006945000088308,246.60075316700386,1.6956302920007147,246.8862161669822,1.9992150000180118,247.2179021250049,3,1.3006060420011636,None,519285,001,2023-11-28_17h17.04.715,semanticsuppression,2023.2.2,None,2023-11-28 17h17.14.482511 -0800,
211,Same,ship,ship,3,0,101,101,210,247.2239430839836,,,,,,,,,,,,247.21827658399707,247.2239430839836,248.20588966700598,248.20588966700598,248.22181854199152,248.50082933399244,1.2993188749824185,248.90425687498646,1.6861484999826644,249.2007861250022,1.9993368339783046,249.47345920899534,3,1.2653618339973036,None,519285,001,2023-11-28_17h17.04.715,semanticsuppression,2023.2.2,None,2023-11-28 17h17.14.482511 -0800,
51,Same,ship,ship,3,0,102,102,50,249.48410108400276,,,,,,,,,,,,249.47385058400687,249.48410108400276,250.4721865419997,250.4721865419997,250.4721865419997,250.7674458749825,1.2991180829994846,251.17142962498474,1.6938310409896076,251.46746162499767,2.010405582987005,251.68458591698436,3,1.1978770419955254,None,519285,001,2023-11-28_17h17.04.715,semanticsuppression,2023.2.2,None,2023-11-28 17h17.14.482511 -0800,
21,semanticR,boat,ship,3,0,103,103,20,251.69182116698357,,,,,,,,,,,,251.68498737498885,251.69182116698357,252.6739652089891,252.6739652089891,252.68874191699433,252.97139829199295,1.2992952079803217,253.3707800419943,1.6859621249896009,253.66743633398437,1.9992478329804726,253.93470616699778,3,1.25673566700425,None,519285,001,2023-11-28_17h17.04.715,semanticsuppression,2023.2.2,None,2023-11-28 17h17.14.482511 -0800,
183,Same,boat,boat,3,0,104,104,182,253.9417515420064,,,,,,,,,,,,253.93505354199442,253.9417515420064,254.92309987498447,254.92309987498447,254.9381476669805,255.2232589169871,1.2992556669923943,255.62133470899425,1.6864374169963412,255.9173897919827,1.9991763749858364,256.1512824590027,3,1.2174961669952609,None,519285,001,2023-11-28_17h17.04.715,semanticsuppression,2023.2.2,None,2023-11-28 17h17.14.482511 -0800,
44,Different,goat,ship,3,0,105,105,43,256.16054524999345,,,,,,,,,,,,256.15170491699246,256.16054524999345,257.13913054199656,257.13913054199656,257.15500845899805,257.5008397499914,1.3391019999980927,257.8393674590043,1.7325703329988755,258.1367290839844,1.9992537920188624,258.4213823750033,3,1.2807327919872478,None,519285,001,2023-11-28_17h17.04.715,semanticsuppression,2023.2.2,None,2023-11-28 17h17.14.482511 -0800,
55,Same,cook,cook,2,0,106,106,54,258.43413604199304,,,,,,,,,,,,258.421768375003,258.43413604199304,259.4175335839973,259.4175335839973,259.4220855839958,259.7067923749855,1.3007352910062764,260.1227051669848,1.6959329580131453,260.41985395899974,2.0124912910105195,260.75567641700036,2,1.3362975000054576,None,519285,001,2023-11-28_17h17.04.715,semanticsuppression,2023.2.2,None,2023-11-28 17h17.14.482511 -0800,
148,Different,ship,goat,2,0,107,107,147,260.7674620419857,,,,,,,,,,,,260.75606983399484,260.7674620419857,261.75655312498566,261.75655312498566,261.75655312498566,262.0549329589994,1.2990217090118676,262.45574499998474,1.6949188750004396,262.7509000840073,1.9990476250241045,263.0346193749865,2,1.2744047080050223,None,519285,001,2023-11-28_17h17.04.715,semanticsuppression,2023.2.2,None,2023-11-28 17h17.14.482511 -0800,
26,1D,goat,boat,3,0,108,108,25,263.0421817500028,,,,,,,,,,,,263.03497862498625,263.0421817500028,264.02245545899495,264.02245545899495,264.0384810419928,264.31729662499856,1.2993107920046896,264.72109833400464,1.6862599589803722,265.01748483398114,1.999295624991646,265.28472012499697,3,1.257206333015347,None,519285,001,2023-11-28_17h17.04.715,semanticsuppression,2023.2.2,None,2023-11-28 17h17.14.482511 -0800,
195,Same,cook,cook,2,0,109,109,194,265.2932219170034,,,,,,,,,,,,265.285104916984,265.2932219170034,266.272899167001,266.272899167001,266.288136416988,266.5717410419893,1.2992702499905135,266.97297075000824,1.6880473750061356,267.2719112089835,1.9992548750014976,267.5179125419818,2,1.2363968339923304,None,519285,001,2023-11-28_17h17.04.715,semanticsuppression,2023.2.2,None,2023-11-28 17h17.14.482511 -0800,
57,semanticR,chef,cook,2,0,110,110,56,267.52442624999094,,,,,,,,,,,,267.51827929198043,267.52442624999094,268.50649716699263,268.50649716699263,268.5215365839831,268.8049672500056,1.2994858749734703,269.2045169589983,1.6863866669882555,269.5007847090019,1.9993149589863606,269.78470458398806,2,1.2744600000150967,None,519285,001,2023-11-28_17h17.04.715,semanticsuppression,2023.2.2,None,2023-11-28 17h17.14.482511 -0800,
56,Different,book,chef,2,0,111,111,55,269.7936187919986,,,,,,,,,,,,269.7850691670028,269.7936187919986,270.77416670898674,270.77416670898674,270.78872233399306,271.07185241699335,1.2992286249937024,271.47294391700416,1.6880252919800114,271.767483292002,1.9993439999816474,272.0385166250053,2,1.2620655000209808,None,519285,001,2023-11-28_17h17.04.715,semanticsuppression,2023.2.2,None,2023-11-28 17h17.14.482511 -0800,
58,1D,book,cook,2,0,112,112,57,272.050981709006,,,,,,,,,,,,272.03890737498295,272.050981709006,273.0342273749993,273.0342273749993,273.0386104169884,273.32277266698657,1.312095541972667,273.7376879999938,1.69896208299906,274.0341801249888,2.000884541979758,274.2564815839869,2,1.2206688330043107,None,519285,001,2023-11-28_17h17.04.715,semanticsuppression,2023.2.2,None,2023-11-28 17h17.14.482511 -0800,
88,Different,ship,goat,2,0,113,113,87,274.26756366700283,,,,,,,,,,,,274.2568264589936,274.26756366700283,275.25588412498473,275.25588412498473,275.25588412498473,275.5509002089966,1.3108667919877917,275.9548434999888,1.6981677500007208,276.2555488749931,2.0108099589997437,276.5013622499828,2,1.2362640000064857,None,519285,001,2023-11-28_17h17.04.715,semanticsuppression,2023.2.2,None,2023-11-28 17h17.14.482511 -0800,
222,1D,boat,goat,2,0,114,114,221,276.5072301249893,,,,,,,,,,,,276.5017604169843,276.5072301249893,277.4893665839918,277.4893665839918,277.5068822919857,277.7842515000084,1.2992756250023376,278.187845834007,1.6993007079872768,278.48424229200464,1.9992169580073096,278.6512882919924,2,1.14972037501866,None,519285,001,2023-11-28_17h17.04.715,semanticsuppression,2023.2.2,None,2023-11-28 17h17.14.482511 -0800,
182,1D,boat,goat,2,0,115,115,181,278.657308541995,,,,,,,,,,,,278.6516730840085,278.657308541995,279.6392711669905,279.6392711669905,279.6552059999958,279.93422579200706,1.2993854169908445,280.33967720900546,1.6881701670063194,280.63870541699,1.9993175420095213,280.7846688340069,2,1.136821708001662,None,519285,001,2023-11-28_17h17.04.715,semanticsuppression,2023.2.2,None,2023-11-28 17h17.14.482511 -0800,
194,1D,cook,book,3,0,116,116,193,280.79209241698845,,,,,,,,,,,,280.7850454589934,280.79209241698845,281.7728447089903,281.7728447089903,281.7883155839809,282.0676105839957,1.2994077079929411,282.4713602089905,1.6864640830026474,282.7711520839948,1.9994223749963567,283.01804187498055,3,1.2396343750006054,None,519285,001,2023-11-28_17h17.04.715,semanticsuppression,2023.2.2,None,2023-11-28 17h17.14.482511 -0800,
1,semanticR,boat,ship,3,0,117,117,0,283.025424499996,,,,,,,,,,,,283.0184102089843,283.025424499996,284.00579929200467,284.00579929200467,284.0216577920073,284.3009365419857,1.2991161250101868,284.70448766698246,1.6862435830116738,285.00773295899853,1.9993132909876294,285.36809649999486,3,1.3559705420047976,None,519285,001,2023-11-28_17h17.04.715,semanticsuppression,2023.2.2,None,2023-11-28 17h17.14.482511 -0800,
11,Same,ship,ship,3,0,118,118,10,285.37440508400323,,,,,,,,,,,,285.3684821249917,285.37440508400323,286.35608116700314,286.35608116700314,286.371960916993,286.65096512500895,1.2992606250045355,287.0543842089828,1.6860630830051377,287.35097391699674,1.999238916003378,287.60124483398977,3,1.2333117499947548,None,519285,001,2023-11-28_17h17.04.715,semanticsuppression,2023.2.2,None,2023-11-28 17h17.14.482511 -0800,
36,Different,book,chef,2,0,119,119,35,287.6098550419847,,,,,,,,,,,,287.6016147499904,287.6098550419847,288.58955800000695,288.58955800000695,288.60583066698746,288.8870689589821,1.2995333749859128,289.2876958749839,1.6862477499817032,289.58430154199596,1.9996283749933355,289.8350289170048,2,1.2432802910043392,None,519285,001,2023-11-28_17h17.04.715,semanticsuppression,2023.2.2,None,2023-11-28 17h17.14.482511 -0800,
218,1D,book,cook,2,0,120,120,217,289.84333387500374,,,,,,,,,,,,289.8355493749841,289.84333387500374,290.83432541700313,290.83432541700313,290.8390300839965,291.1217513750016,1.3023168749932665,291.5342980840069,1.6989204169949517,291.821787916997,2.0027226250094827,292.2515593339922,2,1.4067591249768157,None,519285,001,2023-11-28_17h17.04.715,semanticsuppression,2023.2.2,None,2023-11-28 17h17.14.482511 -0800,
166,1D,goat,boat,3,0,121,121,165,292.2599740840087,,,,,,,,,,,,292.2519733750087,292.2599740840087,293.23952954198467,293.23952954198467,293.2551827089919,293.5397367090045,1.2991677499958314,293.9381495419948,1.6863368329941295,294.2342906249978,1.9992267079942394,294.68482412499725,3,1.4403327500040177,None,519285,001,2023-11-28_17h17.04.715,semanticsuppression,2023.2.2,None,2023-11-28 17h17.14.482511 -0800,
170,1D,book,cook,2,0,122,122,169,294.694279333984,,,,,,,,,,,,294.68531820899807,294.694279333984,295.6728527499945,295.6728527499945,295.6883348340052,295.96996874999604,1.2992452910111751,296.37228466698434,1.687174083024729,296.6703368749877,1.9992017500044312,296.95156858398695,2,1.2760815000219736,None,519285,001,2023-11-28_17h17.04.715,semanticsuppression,2023.2.2,None,2023-11-28 17h17.14.482511 -0800,
65,semanticR,ship,boat,3,0,123,123,64,296.9598968749924,,,,,,,,,,,,296.9519600420026,296.9598968749924,297.9406778749835,297.9406778749835,297.9551472500025,298.23968500000774,1.2990887080086395,298.63787245898857,1.6992861659964547,298.9343709999812,1.99917616599123,299.3847883339913,3,1.4299957499897573,None,519285,001,2023-11-28_17h17.04.715,semanticsuppression,2023.2.2,None,2023-11-28 17h17.14.482511 -0800,
213,semanticR,cook,chef,2,0,124,124,212,299.39257749999524,,,,,,,,,,,,299.3851789170003,299.39257749999524,300.3724094170029,300.3724094170029,300.3901158339868,300.6676993340079,1.2993009579950012,301.0711400419823,1.6861170420015696,301.3677117089974,1.9992619169934187,301.80150524998317,2,1.426022625004407,None,519285,001,2023-11-28_17h17.04.715,semanticsuppression,2023.2.2,None,2023-11-28 17h17.14.482511 -0800,
129,semanticR,chef,cook,2,0,125,125,128,301.8105093750055,,,,,,,,,,,,301.80191483398085,301.8105093750055,302.78921908399207,302.78921908399207,302.8051273750025,303.0843683340063,1.2992216249986086,303.48953433398856,1.6877744169905782,303.78777258400805,1.99921487501706,304.03485883399844,2,1.2340017080132384,None,519285,001,2023-11-28_17h17.04.715,semanticsuppression,2023.2.2,None,2023-11-28 17h17.14.482511 -0800,
162,1D,boat,goat,2,0,126,126,161,304.0434625420021,,,,,,,,,,,,304.0352167089877,304.0434625420021,305.0225592920033,305.0225592920033,305.0383471249952,305.31755274999887,1.2993254169996362,305.7230216249882,1.687961916992208,306.021590083983,1.99931933300104,306.4042371249816,2,1.3771925000182819,None,519285,001,2023-11-28_17h17.04.715,semanticsuppression,2023.2.2,None,2023-11-28 17h17.14.482511 -0800,
4,Different,goat,ship,3,0,127,127,3,306.413475459005,,,,,,,,,,,,306.4052857089846,306.413475459005,307.4010769169836,307.4010769169836,307.40560637498857,307.6882990419981,1.2997807089996058,308.10585216700565,1.6959121669933666,308.4046175419935,1.9995285419863649,308.7515049999929,3,1.3383003750059288,None,519285,001,2023-11-28_17h17.04.715,semanticsuppression,2023.2.2,None,2023-11-28 17h17.14.482511 -0800,
48,Different,ship,goat,2,0,128,128,47,308.7599228750041,,,,,,,,,,,,308.7518822499842,308.7599228750041,309.74078558399924,309.74078558399924,309.75572958399425,310.03781491698464,1.2992800000065472,310.4391884589859,1.687459791020956,310.7343307499832,1.9993697080062702,310.9716542499955,2,1.2295413329848088,None,519285,001,2023-11-28_17h17.04.715,semanticsuppression,2023.2.2,None,2023-11-28 17h17.14.482511 -0800,
232,Different,chef,book,3,0,129,129,231,310.9844095419976,,,,,,,,,,,,310.97199533399544,310.9844095419976,311.97359295899514,311.97359295899514,311.97359295899514,312.27014712500386,1.3125760000257287,312.6676777919929,1.700660084025003,312.9552560839802,1.9999767500266898,313.2515185000084,3,1.2673028749995865,None,519285,001,2023-11-28_17h17.04.715,semanticsuppression,2023.2.2,None,2023-11-28 17h17.14.482511 -0800,
90,1D,book,cook,2,0,130,130,89,313.2603668750089,,,,,,,,,,,,313.25194308400387,313.2603668750089,314.2393271669862,314.2393271669862,314.2554762089858,314.53448262499296,1.299346500018146,314.937923999998,1.6861640420102049,315.2344283339917,1.9992796670121606,315.6073727920011,2,1.3656844579963945,None,519285,001,2023-11-28_17h17.04.715,semanticsuppression,2023.2.2,None,2023-11-28 17h17.14.482511 -0800,
155,Same,cook,cook,2,0,131,131,154,315.6178186670004,,,,,,,,,,,,315.6080474999908,315.6178186670004,316.60621274998994,316.60621274998994,316.60621274998994,316.90109666698845,1.3099205420003273,317.30420029198285,1.6964275000209454,317.6010502089921,2.0099073750025127,317.83895866698003,2,1.2311494589957874,None,519285,001,2023-11-28_17h17.04.715,semanticsuppression,2023.2.2,None,2023-11-28 17h17.14.482511 -0800,
92,Different,chef,book,3,0,132,132,91,317.8511129170074,,,,,,,,,,,,317.83935125000426,317.8511129170074,318.834415624995,318.834415624995,318.8386567499838,319.12179716699757,1.3002445000165608,319.5343648339913,1.6951822919945698,319.82149229198694,1.9991999999911059,320.0349455419928,3,1.1919266249751672,None,519285,001,2023-11-28_17h17.04.715,semanticsuppression,2023.2.2,None,2023-11-28 17h17.14.482511 -0800,
116,Different,book,chef,2,0,133,133,115,320.042100458988,,,,,,,,,,,,320.0352993340057,320.042100458988,321.02278825000394,321.02278825000394,321.0403108339815,321.3176375000039,1.29930687500746,321.7213681249996,1.686218667018693,322.01771412498783,1.9993065840099007,322.27187799999956,2,1.247885499993572,None,519285,001,2023-11-28_17h17.04.715,semanticsuppression,2023.2.2,None,2023-11-28 17h17.14.482511 -0800,
95,Same,cook,cook,2,0,134,134,94,322.28452299998025,,,,,,,,,,,,322.27224595900043,322.28452299998025,323.2739784590085,323.2739784590085,323.2739784590085,323.57144870900083,1.2993527500075288,323.96780516699073,1.6957177089934703,324.254766041995,1.9996864589920733,324.48485249999794,2,1.204566749976948,None,519285,001,2023-11-28_17h17.04.715,semanticsuppression,2023.2.2,None,2023-11-28 17h17.14.482511 -0800,
106,1D,goat,boat,3,0,135,135,105,324.4925122919958,,,,,,,,,,,,324.4852148749924,324.4925122919958,325.4728013749991,325.4728013749991,325.48857012498775,325.7678024999914,1.2993544999917503,326.17166133399587,1.6866093749995343,326.46776120900176,1.999356665997766,326.66825275000883,3,1.1919335419952404,None,519285,001,2023-11-28_17h17.04.715,semanticsuppression,2023.2.2,None,2023-11-28 17h17.14.482511 -0800,
60,Different,chef,book,3,0,136,136,59,326.6757227499911,,,,,,,,,,,,326.6686390840041,326.6757227499911,327.65604445899953,327.65604445899953,327.6736394999898,327.95115649999934,1.2993287080025766,328.35490129198297,1.6864231250074226,328.65113587499945,1.9992607500171289,328.95495904199197,3,1.297620041994378,None,519285,001,2023-11-28_17h17.04.715,semanticsuppression,2023.2.2,None,2023-11-28 17h17.14.482511 -0800,
96,Different,book,chef,2,0,137,137,95,328.96786183398217,,,,,,,,,,,,328.9553270000033,328.96786183398217,329.9572757089918,329.9572757089918,329.9572757089918,330.25366212500376,1.3125418749987148,330.6511369170039,1.700880791991949,330.9381040419976,1.9997071669786237,331.2016792499926,2,1.2323278340045363,None,519285,001,2023-11-28_17h17.04.715,semanticsuppression,2023.2.2,None,2023-11-28 17h17.14.482511 -0800,
191,Same,ship,ship,3,0,138,138,190,331.21012520900695,,,,,,,,,,,,331.2020352499967,331.21012520900695,332.19080295899766,332.19080295899766,332.20528329198714,332.4883114999975,1.2992841250088532,332.8895940000075,1.6877154580142815,333.18880120900576,1.9992892500013113,333.5224297499808,3,1.3303416249982547,None,519285,001,2023-11-28_17h17.04.715,semanticsuppression,2023.2.2,None,2023-11-28 17h17.14.482511 -0800,
29,semanticR,chef,cook,2,0,139,139,28,333.5344807090005,,,,,,,,,,,,333.5227996670001,333.5344807090005,334.5177954999963,334.5177954999963,334.52406299998984,334.8053671249945,1.2991797079739626,335.22427962499205,1.6955144579987973,335.52198916699854,1.9993505000020377,335.83509112498723,2,1.3148333330173045,None,519285,001,2023-11-28_17h17.04.715,semanticsuppression,2023.2.2,None,2023-11-28 17h17.14.482511 -0800,
54,1D,cook,book,3,0,140,140,53,335.84306345900404,,,,,,,,,,,,335.83547254200676,335.84306345900404,336.82298570900457,336.82298570900457,336.83855508398847,337.1178484999982,1.2992658329894766,337.52132075000554,1.686008207994746,337.81778749998193,1.9991990829876158,338.1082828340004,3,1.284746040997561,None,519285,001,2023-11-28_17h17.04.715,semanticsuppression,2023.2.2,None,2023-11-28 17h17.14.482511 -0800,
201,semanticR,boat,ship,3,0,141,141,200,338.11693995899986,,,,,,,,,,,,338.1086462090025,338.11693995899986,339.1064225419832,339.1064225419832,339.1064225419832,339.40593016700586,1.3093568340118509,339.80487162500503,1.6963950839999598,340.1012318749854,2.0093527090211865,340.40592749998905,3,1.2975895830022637,None,519285,001,2023-11-28_17h17.04.715,semanticsuppression,2023.2.2,None,2023-11-28 17h17.14.482511 -0800,
202,1D,boat,goat,2,0,142,142,201,340.4179582920042,,,,,,,,,,,,340.40630229198723,340.4179582920042,341.4011072499852,341.4011072499852,341.405534666992,341.69032116699964,1.299179791007191,342.1046477500058,1.6950595829985105,342.4011632089969,2.000345250009559,342.8228164589964,2,1.4198495839955285,None,519285,001,2023-11-28_17h17.04.715,semanticsuppression,2023.2.2,None,2023-11-28 17h17.14.482511 -0800,
124,Different,goat,ship,3,0,143,143,123,342.83462658399367,,,,,,,,,,,,342.8232051249943,342.83462658399367,343.82248604198685,343.82248604198685,343.82248604198685,344.11785145898466,1.311447624990251,344.51791220900486,1.7114567499957047,344.8053377500037,2.0114327920018695,345.0684093750024,3,1.2415703749866225,None,519285,001,2023-11-28_17h17.04.715,semanticsuppression,2023.2.2,None,2023-11-28 17h17.14.482511 -0800,
14,1D,cook,book,3,0,144,144,13,345.0763841669832,,,,,,,,,,,,345.0688279589813,345.0763841669832,346.05661170900567,346.05661170900567,346.07202437499654,346.35634291698807,1.2992587499902584,346.75496266700793,1.6992694580112584,347.0512856669957,1.9992073329922277,347.33509041700745,3,1.270353583007818,None,519285,001,2023-11-28_17h17.04.715,semanticsuppression,2023.2.2,None,2023-11-28 17h17.14.482511 -0800,
175,Same,cook,cook,2,0,145,145,174,347.3422812089848,,,,,,,,,,,,347.33549670898356,347.3422812089848,348.3244508749922,348.3244508749922,348.33946029198705,348.6218804999953,1.2992663329932839,349.0234834169969,1.6881887080089655,349.31773354200413,1.9992134580097627,349.60168212500867,2,1.2690264170232695,None,519285,001,2023-11-28_17h17.04.715,semanticsuppression,2023.2.2,None,2023-11-28 17h17.14.482511 -0800,
206,1D,goat,boat,3,0,146,146,205,349.6091865419876,,,,,,,,,,,,349.60205591699923,349.6091865419876,350.58952583398786,350.58952583398786,350.60698254199815,350.8846395419969,1.2993696249905042,351.28809758400894,1.6862029999902006,351.58461158399587,1.9993318329798058,351.8349613339815,3,1.243324874987593,None,519285,001,2023-11-28_17h17.04.715,semanticsuppression,2023.2.2,None,2023-11-28 17h17.14.482511 -0800,
62,1D,boat,goat,2,0,147,147,61,351.84198991698213,,,,,,,,,,,,351.83532262500376,351.84198991698213,352.82325854199007,352.82325854199007,352.8389377499989,353.11794654198457,1.2993337500083726,353.52139741700375,1.6862311250006314,353.81792224998935,1.9994491670222487,354.0184836249973,3,1.1837314160075039,None,519285,001,2023-11-28_17h17.04.715,semanticsuppression,2023.2.2,None,2023-11-28 17h17.14.482511 -0800,
110,1D,book,cook,2,0,148,148,109,354.0271831669961,,,,,,,,,,,,354.0188918749918,354.0271831669961,355.007545542001,355.007545542001,355.02298466698267,355.3051878749975,1.3014103329915088,355.70506587499403,1.6992003329796717,356.00124487499124,1.9992132499755826,356.30197891700664,2,1.2885417079960462,None,519285,001,2023-11-28_17h17.04.715,semanticsuppression,2023.2.2,None,2023-11-28 17h17.14.482511 -0800,
186,1D,goat,boat,3,0,149,149,185,356.3109471669886,,,,,,,,,,,,356.3023839170055,356.3109471669886,357.2912629589846,357.2912629589846,357.3058954169974,357.5887410840078,1.3030640840006527,357.9882672499807,1.6989688340108842,358.28456624998944,1.9990736249892507,358.5852266669972,3,1.2866677080164663,None,519285,001,2023-11-28_17h17.04.715,semanticsuppression,2023.2.2,None,2023-11-28 17h17.14.482511 -0800,
212,Different,chef,book,3,0,150,150,211,358.5934928749921,,,,,,,,,,,,358.58563795898226,358.5934928749921,359.57428483400145,359.57428483400145,359.5892954999872,359.8683000000019,1.299224916001549,360.2717591249966,1.699191082996549,360.56799058400793,1.9991383329906967,360.83507445899886,3,1.2550155830103904,None,519285,001,2023-11-28_17h17.04.715,semanticsuppression,2023.2.2,None,2023-11-28 17h17.14.482511 -0800,
100,Different,chef,book,3,0,151,151,99,360.83996887499234,,,,,,,,,,,,360.83543891698355,360.83996887499234,361.82324304198846,361.82324304198846,361.834633416991,362.1219997500011,1.2993362919951323,362.5214826669835,1.6862073329975829,362.8179492499912,1.9993984579923563,363.1726815000002,3,1.3478080409986433,None,519285,001,2023-11-28_17h17.04.715,semanticsuppression,2023.2.2,None,2023-11-28 17h17.14.482511 -0800,
74,1D,cook,book,3,0,152,152,73,363.18469495899626,,,,,,,,,,,,363.1730405839917,363.18469495899626,364.17252762499265,364.17252762499265,364.17252762499265,364.46796312500373,1.3005059999995865,364.8679715000035,1.6950883749814238,365.1547217920015,2.0001729170035105,365.35570458398433,3,1.1813381249958184,None,519285,001,2023-11-28_17h17.04.715,semanticsuppression,2023.2.2,None,2023-11-28 17h17.14.482511 -0800,
228,Different,ship,goat,2,0,153,153,227,365.3680721669807,,,,,,,,,,,,365.3560658750066,365.3680721669807,366.3559080839914,366.3559080839914,366.3559080839914,366.65140987499035,1.2995781660138164,367.05137004199787,1.6954639159957878,367.33835174998967,2.0119905410101637,367.63985983398743,2,1.2829942499811295,None,519285,001,2023-11-28_17h17.04.715,semanticsuppression,2023.2.2,None,2023-11-28 17h17.14.482511 -0800,
225,semanticR,ship,boat,3,0,154,154,224,367.65141470899107,,,,,,,,,,,,367.640222291986,367.65141470899107,368.63467258398305,368.63467258398305,368.6390322500083,368.9231702089892,1.3113152500009164,369.3380284589948,1.6979609999980312,369.6347206250066,1.999008708022302,369.90694033398177,3,1.2694482500082813,None,519285,001,2023-11-28_17h17.04.715,semanticsuppression,2023.2.2,None,2023-11-28 17h17.14.482511 -0800,
109,semanticR,chef,cook,2,0,155,155,108,369.9180772920081,,,,,,,,,,,,369.9072962089849,369.9180772920081,370.9068473340012,370.9068473340012,370.9068473340012,371.20705166700645,1.2998984589939937,371.605194667005,1.6941982090065721,371.9053542089823,2.010887874988839,372.151812666998,2,1.2321987499890383,None,519285,001,2023-11-28_17h17.04.715,semanticsuppression,2023.2.2,None,2023-11-28 17h17.14.482511 -0800,
39,Same,chef,chef,2,0,156,156,38,372.1585339589801,,,,,,,,,,,,372.15219774999423,372.1585339589801,373.13967129198136,373.13967129198136,373.15823920900584,373.4346972919884,1.2993117090081796,373.8385026670003,1.6864716669952031,374.13468883399037,1.9993037919921335,374.40187949998653,2,1.2551123749872204,None,519285,001,2023-11-28_17h17.04.715,semanticsuppression,2023.2.2,None,2023-11-28 17h17.14.482511 -0800,
66,1D,goat,boat,3,0,157,157,65,374.41024487500545,,,,,,,,,,,,374.4022782089887,374.41024487500545,375.39124516700394,375.39124516700394,375.4058700419846,375.6891188749869,1.2992668749939185,376.0900490419881,1.687924291996751,376.3847342499939,1.9992233749944717,376.7352850419993,3,1.3366621670138557,None,519285,001,2023-11-28_17h17.04.715,semanticsuppression,2023.2.2,None,2023-11-28 17h17.14.482511 -0800,
3,Same,boat,boat,3,0,158,158,2,376.7429640420014,,,,,,,,,,,,376.73568270899705,376.7429640420014,377.72458041700884,377.72458041700884,377.7389119169966,378.0220159169985,1.2991908330004662,378.4217233340023,1.6861945409909822,378.7180955839867,1.9991767499886919,378.96866379198036,3,1.2392607499787118,None,519285,001,2023-11-28_17h17.04.715,semanticsuppression,2023.2.2,None,2023-11-28 17h17.14.482511 -0800,
61,semanticR,boat,ship,3,0,159,159,60,378.97707295898,,,,,,,,,,,,378.9690201249905,378.97707295898,379.957811500004,379.957811500004,379.9725747089833,380.25528366700746,1.2991671670170035,380.65549941698555,1.68665520902141,380.95526424999116,1.9991228750150185,381.3018746250018,3,1.331716916989535,None,519285,001,2023-11-28_17h17.04.715,semanticsuppression,2023.2.2,None,2023-11-28 17h17.14.482511 -0800,
42,1D,boat,goat,2,0,160,160,41,381.30972837499576,,,,,,,,,,,,381.30226075000246,381.30972837499576,382.29135699998005,382.29135699998005,382.30599962500855,382.58951633400284,1.299258250015555,382.9888403750083,1.6867485000111628,383.284729624982,1.9994038330041803,383.5852071249974,2,1.2863074580091052,None,519285,001,2023-11-28_17h17.04.715,semanticsuppression,2023.2.2,None,2023-11-28 17h17.14.482511 -0800,
64,Different,goat,ship,3,0,161,161,63,383.5937047920015,,,,,,,,,,,,383.5856056670018,383.5937047920015,384.57445487499353,384.57445487499353,384.58940125000663,384.8721484169946,1.2993730409943964,385.27163366699824,1.6861877079936676,385.5680616669997,1.999357874999987,385.7893256249954,3,1.2130772079981398,None,519285,001,2023-11-28_17h17.04.715,semanticsuppression,2023.2.2,None,2023-11-28 17h17.14.482511 -0800,
67,Same,goat,goat,2,0,162,162,66,385.80145341699244,,,,,,,,,,,,385.78968829198857,385.80145341699244,386.789483792003,386.789483792003,386.789483792003,387.0848386249854,1.2992313750146423,387.4847583340015,1.6952199169900268,387.7719257499848,1.9991593750019092,388.0185401669878,2,1.216559791995678,None,519285,001,2023-11-28_17h17.04.715,semanticsuppression,2023.2.2,None,2023-11-28 17h17.14.482511 -0800,
219,Same,chef,chef,2,0,163,163,218,388.0263028749905,,,,,,,,,,,,388.01896016698447,388.0263028749905,389.00657508400036,389.00657508400036,389.02251708399854,389.301493499981,1.2990882080048323,389.70517354199546,1.6863762910070363,390.00144383398583,1.9992697080015205,390.55204154198873,2,1.5433909999846946,None,519285,001,2023-11-28_17h17.04.715,semanticsuppression,2023.2.2,None,2023-11-28 17h17.14.482511 -0800,
141,semanticR,boat,ship,3,0,164,164,140,390.55980016698595,,,,,,,,,,,,390.55244112500804,390.55980016698595,391.53956145900884,391.53956145900884,391.5556587089959,391.83469695900567,1.299192666017916,392.23988866698346,1.687619166012155,392.53914504198474,1.9992079579969868,392.95605158398394,3,1.414825333020417,None,519285,001,2023-11-28_17h17.04.715,semanticsuppression,2023.2.2,None,2023-11-28 17h17.14.482511 -0800,
104,Different,goat,ship,3,0,165,165,103,392.96812970898463,,,,,,,,,,,,392.9564222919871,392.96812970898463,393.95622066699434,393.95622066699434,393.95622066699434,394.2515060000005,1.2991438749886584,394.6515384170052,1.6952764999878127,394.93871324998327,2.000146042002598,395.340400666988,3,1.3821243330021389,None,519285,001,2023-11-28_17h17.04.715,semanticsuppression,2023.2.2,None,2023-11-28 17h17.14.482511 -0800,
70,1D,book,cook,2,0,166,166,69,395.3514983339992,,,,,,,,,,,,395.34075729199685,395.3514983339992,396.3393946249853,396.3393946249853,396.3393946249853,396.6347772500012,1.299437375011621,397.03480245900573,1.6941980829869863,397.32213508398854,2.010899957997026,397.6853548339859,2,1.343810874997871,None,519285,001,2023-11-28_17h17.04.715,semanticsuppression,2023.2.2,None,2023-11-28 17h17.14.482511 -0800,
79,Same,chef,chef,2,0,167,167,78,397.69328287499957,,,,,,,,,,,,397.6857616250054,397.69328287499957,398.6738336249837,398.6738336249837,398.6888806250063,398.973872750008,1.299303042003885,399.3718792499858,1.686269917001482,399.66822349998984,1.999218250013655,400.1020536249853,2,1.4245671249809675,None,519285,001,2023-11-28_17h17.04.715,semanticsuppression,2023.2.2,None,2023-11-28 17h17.14.482511 -0800,
134,1D,cook,book,3,0,168,168,133,400.1108434589987,,,,,,,,,,,,400.1024225000001,400.1108434589987,401.0911380419857,401.0911380419857,401.10577479199856,401.3890130420041,1.299229166994337,401.7882807919814,1.6860086669912562,402.08487204200355,1.9992187919851858,402.439227750001,3,1.3463418330065906,None,519285,001,2023-11-28_17h17.04.715,semanticsuppression,2023.2.2,None,2023-11-28 17h17.14.482511 -0800,
230,1D,book,cook,2,0,169,169,229,402.45153254200704,,,,,,,,,,,,402.4396078749851,402.45153254200704,403.43493966700044,403.43493966700044,403.43941429199185,403.72211924998555,1.2992771670105867,404.1349117500067,1.6954647920210846,404.42121779199806,1.9995453750016168,404.6397705419804,2,1.2042094999924302,None,519285,001,2023-11-28_17h17.04.715,semanticsuppression,2023.2.2,None,2023-11-28 17h17.14.482511 -0800,
184,Different,goat,ship,3,0,170,170,183,404.6516522089951,,,,,,,,,,,,404.6401625419967,404.6516522089951,405.6348142499919,405.6348142499919,405.6398629589821,405.9220418749901,1.3005952080129646,406.33858283399604,1.6949035410070792,406.6348969999817,1.9999603329924867,406.90212837498984,3,1.2568105829996057,None,519285,001,2023-11-28_17h17.04.715,semanticsuppression,2023.2.2,None,2023-11-28 17h17.14.482511 -0800,
150,1D,book,cook,2,0,171,171,149,406.9109257499804,,,,,,,,,,,,406.90252479200717,406.9109257499804,407.8916859999881,407.8916859999881,407.90615987498313,408.1888956670009,1.2992306250089314,408.5886451670085,1.686281708010938,408.8849266250036,1.9991916670114733,409.1520899589814,2,1.2556494590244256,None,519285,001,2023-11-28_17h17.04.715,semanticsuppression,2023.2.2,None,2023-11-28 17h17.14.482511 -0800,
12,Different,chef,book,3,0,172,172,11,409.1600084999809,,,,,,,,,,,,409.15246333400137,409.1600084999809,410.1401626250008,410.1401626250008,410.1554679170076,410.4406091669807,1.2992890829918906,410.83873766698525,1.6992316669784486,411.1348853749805,1.9992575829965062,411.4187989170023,3,1.276319083000999,None,519285,001,2023-11-28_17h17.04.715,semanticsuppression,2023.2.2,None,2023-11-28 17h17.14.482511 -0800,
85,semanticR,ship,boat,3,0,173,173,84,411.42766729198047,,,,,,,,,,,,411.4192163340049,411.42766729198047,412.4079145840078,412.4079145840078,412.4223189589975,412.70605554198846,1.2992907910083886,413.106719125004,1.687687833007658,413.4053237499902,1.9992717080167495,413.8686745419982,3,1.4485106250212993,None,519285,001,2023-11-28_17h17.04.715,semanticsuppression,2023.2.2,None,2023-11-28 17h17.14.482511 -0800,
30,1D,book,cook,2,0,174,174,29,413.87740645898157,,,,,,,,,,,,413.8690736249846,413.87740645898157,414.8565959999978,414.8565959999978,414.872602583986,415.15157983399695,1.2993165829975624,415.5572897089878,1.6883893749909475,415.8552493339812,1.9993248749815393,415.98543604198494,2,1.1269894579891115,None,519285,001,2023-11-28_17h17.04.715,semanticsuppression,2023.2.2,None,2023-11-28 17h17.14.482511 -0800,
169,semanticR,chef,cook,2,0,175,175,168,415.99399345900747,,,,,,,,,,,,415.98585783399176,415.99399345900747,416.97335066698724,416.97335066698724,416.989095500001,417.2682886669936,1.2992506659938954,417.68489524998586,1.6992096659960225,417.97195691699744,1.9993909999902826,418.1853899169946,2,1.2088180000137072,None,519285,001,2023-11-28_17h17.04.715,semanticsuppression,2023.2.2,None,2023-11-28 17h17.14.482511 -0800,
224,Different,goat,ship,3,0,176,176,223,418.1929602919845,,,,,,,,,,,,418.18580141698476,418.1929602919845,419.17378637500224,419.17378637500224,419.19090645899996,419.4726632089878,1.2992881250102073,419.8722281669907,1.6865838750090916,420.16827016699244,1.999253750022035,420.4354822919995,3,1.2581224590248894,None,519285,001,2023-11-28_17h17.04.715,semanticsuppression,2023.2.2,None,2023-11-28 17h17.14.482511 -0800,
210,1D,book,cook,2,0,177,177,209,420.4444116670056,,,,,,,,,,,,420.435907209001,420.4444116670056,421.4255130419915,421.4255130419915,421.43957099999534,421.72222370898817,1.299257459002547,422.12183049999294,1.686094917007722,422.4183065420075,1.99921350000659,422.55805258400505,2,1.1309433749993332,None,519285,001,2023-11-28_17h17.04.715,semanticsuppression,2023.2.2,None,2023-11-28 17h17.14.482511 -0800,
10,1D,book,cook,2,0,178,178,9,422.568391000008,,,,,,,,,,,,422.5584442499967,422.568391000008,423.55723616699106,423.55723616699106,423.55723616699106,423.8562759589986,1.3100120000017341,424.2552573340072,1.710021417005919,424.5516484999971,2.0100431669852696,424.7233227920078,2,1.1650334169971757,None,519285,001,2023-11-28_17h17.04.715,semanticsuppression,2023.2.2,None,2023-11-28 17h17.14.482511 -0800,
41,semanticR,boat,ship,3,0,179,179,40,424.73491712499526,,,,,,,,,,,,424.7236893750087,424.73491712499526,425.72450641699834,425.72450641699834,425.72450641699834,426.02211137500126,1.3113862079917453,426.4233530839847,1.69982141701621,426.71825191698736,2.0114959579950664,426.91875241699745,3,1.1875294590136036,None,519285,001,2023-11-28_17h17.04.715,semanticsuppression,2023.2.2,None,2023-11-28 17h17.14.482511 -0800,
89,semanticR,chef,cook,2,0,180,180,88,426.926491249993,,,,,,,,,,,,426.91910337499576,426.926491249993,427.9068734169996,427.9068734169996,427.9224964999885,428.205588916986,1.2993436670221854,428.6069357919914,1.6879803340125363,428.9016673339938,1.99932025000453,429.1403514590056,2,1.2310897080169525,None,519285,001,2023-11-28_17h17.04.715,semanticsuppression,2023.2.2,None,2023-11-28 17h17.14.482511 -0800,
80,Different,chef,book,3,0,181,181,79,429.1517097920005,,,,,,,,,,,,429.1407154999906,429.1517097920005,430.1349679589912,430.1349679589912,430.1395905840036,430.4206684590026,1.2995321250054985,430.83496683399426,1.6944058749941178,431.1225409999897,2.0110960000019986,431.43976541698794,3,1.3030154590087477,None,519285,001,2023-11-28_17h17.04.715,semanticsuppression,2023.2.2,None,2023-11-28 17h17.14.482511 -0800,
43,Same,boat,boat,3,0,182,182,42,431.45168254198506,,,,,,,,,,,,431.4401375419984,431.45168254198506,432.4392016250058,432.4392016250058,432.4392016250058,432.73503416698077,1.311658582999371,433.1385294999927,1.7116919580148533,433.4351594589825,2.000679917022353,433.8228504169965,2,1.3816239169973414,None,519285,001,2023-11-28_17h17.04.715,semanticsuppression,2023.2.2,None,2023-11-28 17h17.14.482511 -0800,
6,1D,goat,boat,3,0,183,183,5,433.835070000001,,,,,,,,,,,,433.8232182500069,433.835070000001,434.8183240839862,434.8183240839862,434.82280887500383,435.10509349999484,1.3007499579980504,435.5182927919959,1.6952266249863897,435.80700833399897,2.0008153329836205,436.2855582089978,3,1.462302833009744,None,519285,001,2023-11-28_17h17.04.715,semanticsuppression,2023.2.2,None,2023-11-28 17h17.14.482511 -0800,
173,semanticR,cook,chef,2,0,184,184,172,436.2932770839834,,,,,,,,,,,,436.28597445899504,436.2932770839834,437.27338704199065,437.27338704199065,437.2910747919814,437.5726973749988,1.2991787909995764,437.97184833398205,1.6860499159956817,438.2683082089934,1.9992377499875147,438.65669216698734,2,1.3827109590056352,None,519285,001,2023-11-28_17h17.04.715,semanticsuppression,2023.2.2,None,2023-11-28 17h17.14.482511 -0800,
214,1D,cook,book,3,0,185,185,213,438.6683418339817,,,,,,,,,,,,438.65709120899555,438.6683418339817,439.6566932499991,439.6566932499991,439.6566932499991,439.94966937499703,1.3112217499874532,440.35173412499717,1.6991372499905992,440.63914879199,1.9998511250014417,440.9354852089891,3,1.2755312499939464,None,519285,001,2023-11-28_17h17.04.715,semanticsuppression,2023.2.2,None,2023-11-28 17h17.14.482511 -0800,
215,Same,cook,cook,2,0,186,186,214,440.94277662498644,,,,,,,,,,,,440.9358888749848,440.94277662498644,441.923566249985,441.923566249985,441.9394385420019,442.2184012919897,1.2993145830114372,442.6236395419983,1.6879062920052093,442.922259458981,1.9992946250131354,443.0688525000005,2,1.1392808750097174,None,519285,001,2023-11-28_17h17.04.715,semanticsuppression,2023.2.2,None,2023-11-28 17h17.14.482511 -0800,
19,Same,chef,chef,2,0,187,187,18,443.0764949590084,,,,,,,,,,,,443.06923733398435,443.0764949590084,444.0567985000089,444.0567985000089,444.0725739169866,444.3517537089938,1.299280709004961,444.7555579589971,1.6864717090211343,445.0553498750087,1.9994355000089854,445.1739059170068,2,1.114393249998102,None,519285,001,2023-11-28_17h17.04.715,semanticsuppression,2023.2.2,None,2023-11-28 17h17.14.482511 -0800,
105,semanticR,ship,boat,3,0,188,188,104,445.1852066249994,,,,,,,,,,,,445.1742525000009,445.1852066249994,446.16847208398394,446.16847208398394,446.1729627499881,446.4562790420023,1.2999277080234606,446.8683418339933,1.6942474170064088,447.1557455000002,2.010944042005576,447.38571450000745,3,1.2099595420004334,None,519285,001,2023-11-28_17h17.04.715,semanticsuppression,2023.2.2,None,2023-11-28 17h17.14.482511 -0800,
217,semanticR,chef,cook,2,0,189,189,216,447.39436879198183,,,,,,,,,,,,447.3860868749907,447.39436879198183,448.37536645898945,448.37536645898945,448.38929624998127,448.6725838340062,1.2991357920109294,449.07231070898706,1.6863837919954676,449.3684073339973,1.999158416991122,449.6189721249975,2,1.2371032499941066,None,519285,001,2023-11-28_17h17.04.715,semanticsuppression,2023.2.2,None,2023-11-28 17h17.14.482511 -0800,
164,Different,goat,ship,3,0,190,190,163,449.62750120900455,,,,,,,,,,,,449.61946454198915,449.62750120900455,450.60813754200353,450.60813754200353,450.6229263749847,450.9058487919974,1.2991570419981144,451.30654183399747,1.6872902500035707,451.60171908399207,1.9992212080105674,451.935493625002,3,1.3191433750034776,None,519285,001,2023-11-28_17h17.04.715,semanticsuppression,2023.2.2,None,2023-11-28 17h17.14.482511 -0800,
25,semanticR,ship,boat,3,0,191,191,24,451.94300425000256,,,,,,,,,,,,451.93586520900135,451.94300425000256,452.92350779200206,452.92350779200206,452.94099495900446,453.21843091698247,1.2993386659945827,453.6222357499937,1.6865222910128068,453.9240080000018,1.999323041003663,454.28563495900016,3,1.3562251669936813,None,519285,001,2023-11-28_17h17.04.715,semanticsuppression,2023.2.2,None,2023-11-28 17h17.14.482511 -0800,
75,Same,cook,cook,2,0,192,192,74,454.29387554200366,,,,,,,,,,,,454.2860175840033,454.29387554200366,455.27488554199226,455.27488554199226,455.2894107500033,455.5725706249941,1.2993418750120327,455.97193783399416,1.6860768330225255,456.2683959589922,1.9992825830122456,456.5897813749907,2,1.3133448339940514,None,519285,001,2023-11-28_17h17.04.715,semanticsuppression,2023.2.2,None,2023-11-28 17h17.14.482511 -0800,
35,Same,cook,cook,2,0,193,193,34,456.60177445900626,,,,,,,,,,,,456.5902352919802,456.60177445900626,457.585188750003,457.585188750003,457.5896816669847,457.872656291991,1.300458499987144,458.2851441669918,1.6950742499902844,458.57244474999607,2.0005666659853887,458.76898599998094,2,1.173946041992167,None,519285,001,2023-11-28_17h17.04.715,semanticsuppression,2023.2.2,None,2023-11-28 17h17.14.482511 -0800,
103,Same,boat,boat,3,0,194,194,102,458.7766300840012,,,,,,,,,,,,458.76941158398404,458.7766300840012,459.7570515839907,459.7570515839907,459.77252970900736,460.05671912498656,1.2992669999948703,460.45533383399015,1.6860798750130925,460.7518422919966,1.9992046669940464,460.8855325419863,3,1.119961999997031,None,519285,001,2023-11-28_17h17.04.715,semanticsuppression,2023.2.2,None,2023-11-28 17h17.14.482511 -0800,
33,semanticR,cook,chef,2,0,195,195,32,460.8933307499974,,,,,,,,,,,,460.88589341699844,460.8933307499974,461.8737334999896,461.8737334999896,461.8893523750012,462.17206929199165,1.2994698749971576,462.5761030839931,1.6903706660086755,462.8724903340044,1.9994662910175975,463.2524034999951,2,1.374667915981263,None,519285,001,2023-11-28_17h17.04.715,semanticsuppression,2023.2.2,None,2023-11-28 17h17.14.482511 -0800,
72,Different,chef,book,3,0,196,196,71,463.2610971670074,,,,,,,,,,,,463.2527925839822,463.2610971670074,464.2416796670004,464.2416796670004,464.25604683399433,464.53917791700223,1.2992419159854762,464.938800584001,1.686174041009508,465.23523366698646,1.9992090830055531,465.5691845419933,3,1.3197101670084521,None,519285,001,2023-11-28_17h17.04.715,semanticsuppression,2023.2.2,None,2023-11-28 17h17.14.482511 -0800,
45,semanticR,ship,boat,3,0,197,197,44,465.5774893749913,,,,,,,,,,,,465.5695809169847,465.5774893749913,466.5570974999864,466.5570974999864,466.5725857919897,466.85730779200094,1.2991051670105662,467.25588820900884,1.6864685000036843,467.55190087499795,1.9990960420109332,467.70236112500424,3,1.1377842079964466,None,519285,001,2023-11-28_17h17.04.715,semanticsuppression,2023.2.2,None,2023-11-28 17h17.14.482511 -0800,
152,Different,chef,book,3,0,198,198,151,467.7104769590078,,,,,,,,,,,,467.70271245899494,467.7104769590078,468.69026754199876,468.69026754199876,468.70614758398733,468.985193333996,1.2991862500202842,469.38862070898176,1.6860610000148881,469.68521349999355,1.9993150840164162,469.9190132090007,3,1.2189773750142194,None,519285,001,2023-11-28_17h17.04.715,semanticsuppression,2023.2.2,None,2023-11-28 17h17.14.482511 -0800,
99,Same,chef,chef,2,0,199,199,98,469.92529591699713,,,,,,,,,,,,469.9194287499995,469.92529591699713,470.9070137499948,470.9070137499948,470.9227289590053,471.2073218339938,1.2992577500117477,471.6056945839955,1.6864435000170488,471.90711229198496,1.9992889580025803,472.2858467089827,2,1.3765217080072034,None,519285,001,2023-11-28_17h17.04.715,semanticsuppression,2023.2.2,None,2023-11-28 17h17.14.482511 -0800,
16,Different,book,chef,2,0,200,200,15,472.29396695899777,,,,,,,,,,,,472.2862372499949,472.29396695899777,473.27496750000864,473.27496750000864,473.28933087500627,473.572667208995,1.2991115419717971,473.9736577500007,1.6875738329836167,474.27238804200897,1.9991555829765275,474.68568704198697,2,1.4031678750179708,None,519285,001,2023-11-28_17h17.04.715,semanticsuppression,2023.2.2,None,2023-11-28 17h17.14.482511 -0800,
94,1D,cook,book,3,0,201,201,93,474.6951318339852,,,,,,,,,,,,474.68613416698645,474.6951318339852,475.67383670900017,475.67383670900017,475.68932620898704,475.97266841700184,1.2992645420017652,476.37398670898983,1.6880337079928722,476.6720840839844,1.999343500006944,476.8900087919901,2,1.2141798750089947,None,519285,001,2023-11-28_17h17.04.715,semanticsuppression,2023.2.2,None,2023-11-28 17h17.14.482511 -0800,
199,Same,chef,chef,2,0,202,202,198,476.9019770419982,,,,,,,,,,,,476.89043191698147,476.9019770419982,477.891389958997,477.891389958997,477.891389958997,478.18943579198094,1.2991854579886422,478.58525745899533,1.6950121669797227,478.8736742500041,2.0116412499919534,479.15232937500696,2,1.250290916999802,None,519285,001,2023-11-28_17h17.04.715,semanticsuppression,2023.2.2,None,2023-11-28 17h17.14.482511 -0800,
198,1D,book,cook,2,0,203,203,197,479.16024174998165,,,,,,,,,,,,479.1527645000024,479.16024174998165,480.14055354200536,480.14055354200536,480.15604649999295,480.4352774999861,1.299309166992316,480.83903270898736,1.6864442919904832,481.13523466698825,1.9992295829870272,481.50644008399104,2,1.3638122499978635,None,519285,001,2023-11-28_17h17.04.715,semanticsuppression,2023.2.2,None,2023-11-28 17h17.14.482511 -0800,
179,Same,chef,chef,2,0,204,204,178,481.51866604198585,,,,,,,,,,,,481.50678691698704,481.51866604198585,482.50822470898856,482.50822470898856,482.50822470898856,482.8061088749964,1.2994612499896903,483.2018789589929,1.6952388329955284,483.4907755839813,1.999234749993775,483.65241079198313,2,1.1325367919926066,None,519285,001,2023-11-28_17h17.04.715,semanticsuppression,2023.2.2,None,2023-11-28 17h17.14.482511 -0800,
123,Same,boat,boat,3,0,205,205,122,483.6614706249966,,,,,,,,,,,,483.6527793749992,483.6614706249966,484.6400226249825,484.6400226249825,484.65603633399587,484.935318874981,1.299343584018061,485.3404235839844,1.6878127090167254,485.6392349170055,1.999348709010519,485.9191112089902,3,1.2711929170181975,None,519285,001,2023-11-28_17h17.04.715,semanticsuppression,2023.2.2,None,2023-11-28 17h17.14.482511 -0800,
200,Different,chef,book,3,0,206,206,199,485.9272416669992,,,,,,,,,,,,485.919482583995,485.9272416669992,486.90988404199015,486.90988404199015,486.9185851670045,487.2063412090065,1.299286416004179,487.6058237919933,1.6864935829944443,487.90196795898373,1.9992595829826314,488.28580545898876,3,1.368547124991892,None,519285,001,2023-11-28_17h17.04.715,semanticsuppression,2023.2.2,None,2023-11-28 17h17.14.482511 -0800,
147,Same,goat,goat,2,0,207,207,146,488.2930937919882,,,,,,,,,,,,488.28618345898576,488.2930937919882,489.2737207089958,489.2737207089958,489.28946749999886,489.57408804199076,1.2992331249988638,489.972362667002,1.6863282079866622,490.26860120898345,1.9993522909935564,490.4358898749924,2,1.1589965420134831,None,519285,001,2023-11-28_17h17.04.715,semanticsuppression,2023.2.2,None,2023-11-28 17h17.14.482511 -0800,
40,Different,chef,book,3,0,208,208,39,490.4447086250002,,,,,,,,,,,,490.4362229589897,490.4447086250002,491.4249753750046,491.4249753750046,491.439840749983,491.7224842919968,1.2991707909968682,492.1235704169958,1.6874861659889575,492.4217460420041,1.999264874990331,492.70250470898463,3,1.2718197079957463,None,519285,001,2023-11-28_17h17.04.715,semanticsuppression,2023.2.2,None,2023-11-28 17h17.14.482511 -0800,
160,Different,chef,book,3,0,209,209,159,492.7075080839859,,,,,,,,,,,,492.7028889170033,492.7075080839859,493.6903550839925,493.6903550839925,493.70196762500564,493.9853169169801,1.2991532500018366,494.388578958984,1.6858397499890998,494.68537958399975,1.9992563340056222,494.9589319170045,2,1.2654383330082055,None,519285,001,2023-11-28_17h17.04.715,semanticsuppression,2023.2.2,None,2023-11-28 17h17.14.482511 -0800,
22,1D,boat,goat,2,0,210,210,21,494.968536750006,,,,,,,,,,,,494.95930562500143,494.968536750006,495.95648358398466,495.95648358398466,495.95648358398466,496.25197841698537,1.3094482079904992,496.65572899999097,1.6965974170016125,496.952111333987,2.009528082999168,497.31907045899425,2,1.354741000017384,None,519285,001,2023-11-28_17h17.04.715,semanticsuppression,2023.2.2,None,2023-11-28 17h17.14.482511 -0800,
27,Same,goat,goat,2,0,211,211,26,497.325996708998,,,,,,,,,,,,497.31946929200785,497.325996708998,498.3072496249806,498.3072496249806,498.32471270899987,498.6062694999855,1.299413665983593,499.00543283400475,1.6861335829889867,499.30202466700575,1.9991706250002608,499.6025353749865,2,1.2839228750090115,None,519285,001,2023-11-28_17h17.04.715,semanticsuppression,2023.2.2,None,2023-11-28 17h17.14.482511 -0800,
49,semanticR,chef,cook,2,0,212,212,48,499.61013008398004,,,,,,,,,,,,499.60291066698846,499.61013008398004,500.59026145900134,500.59026145900134,500.6078399590042,500.88536741698044,1.2992706670193002,501.2889147090027,1.686169125023298,501.5853565419966,1.9992240840219893,502.3024865000043,2,1.7015762079972774,None,519285,001,2023-11-28_17h17.04.715,semanticsuppression,2023.2.2,None,2023-11-28 17h17.14.482511 -0800,
168,Different,ship,goat,2,0,213,213,167,502.310374416993,,,,,,,,,,,,502.30291341699194,502.310374416993,503.29066316699027,503.29066316699027,503.3062541249965,503.59000491700135,1.299252582975896,503.9890315000084,1.686284124996746,504.28534954198403,1.9992477909836452,504.585903166997,2,1.2889951250108425,None,519285,001,2023-11-28_17h17.04.715,semanticsuppression,2023.2.2,None,2023-11-28 17h17.14.482511 -0800,
187,Same,goat,goat,2,0,214,214,186,504.5931047920021,,,,,,,,,,,,504.586305083998,504.5931047920021,505.5743521669938,505.5743521669938,505.58965262499987,505.87386070899083,1.2993057499988936,506.27227074999246,1.6861442500085104,506.5686866249889,1.9992670830106363,506.75652791699395,2,1.1801931670052,None,519285,001,2023-11-28_17h17.04.715,semanticsuppression,2023.2.2,None,2023-11-28 17h17.14.482511 -0800,
121,semanticR,boat,ship,3,0,215,215,120,506.7688025420066,,,,,,,,,,,,506.75687783400645,506.7688025420066,507.75207466699067,507.75207466699067,507.75645441698725,508.03914649999933,1.300454375013942,508.45207454200136,1.695345415995689,508.73793262499385,2.000014374993043,509.069231750007,3,1.3113965410157107,None,519285,001,2023-11-28_17h17.04.715,semanticsuppression,2023.2.2,None,2023-11-28 17h17.14.482511 -0800,
188,Different,ship,goat,2,0,216,216,187,509.0778055420087,,,,,,,,,,,,509.06962654198287,509.0778055420087,510.0570379169949,510.0570379169949,510.0731474169879,510.3521085839893,1.2993168749962933,510.7557517499954,1.686288875003811,511.0520969170029,1.999257666990161,511.2526300419995,2,1.1933134580031037,None,519285,001,2023-11-28_17h17.04.715,semanticsuppression,2023.2.2,None,2023-11-28 17h17.14.482511 -0800,
46,1D,goat,boat,3,0,217,217,45,511.26106029198854,,,,,,,,,,,,511.2529850839928,511.26106029198854,512.2421163749823,512.2421163749823,512.2565989590075,512.5399765839975,1.2992827919952106,512.9405008339963,1.6876648339966778,513.2391819999903,1.9992763749905862,513.7393667919969,3,1.4955583330010995,None,519285,001,2023-11-28_17h17.04.715,semanticsuppression,2023.2.2,None,2023-11-28 17h17.14.482511 -0800,
139,Same,chef,chef,2,0,218,218,138,513.7520806670072,,,,,,,,,,,,513.7397927499842,513.7520806670072,514.7355110000062,514.7355110000062,514.7401404170087,515.0229820839886,1.2995867090066895,515.4355044589902,1.6959266250196379,515.7227723340038,1.999780334008392,515.8692684999842,2,1.1234065830067266,None,519285,001,2023-11-28_17h17.04.715,semanticsuppression,2023.2.2,None,2023-11-28 17h17.14.482511 -0800,
83,Same,boat,boat,3,0,219,219,82,515.8772274589865,,,,,,,,,,,,515.8696698340063,515.8772274589865,516.8586682500027,516.8586682500027,516.8733496670029,517.1559149999812,1.299295250006253,517.5556893750036,1.6861922499956563,517.8521648339811,1.9992522500106134,518.235898666986,3,1.3679785830026958,None,519285,001,2023-11-28_17h17.04.715,semanticsuppression,2023.2.2,None,2023-11-28 17h17.14.482511 -0800,
190,1D,book,cook,2,0,220,220,189,518.2434949589951,,,,,,,,,,,,518.2362994999858,518.2434949589951,519.2238499999803,519.2238499999803,519.2397962090035,519.5188157919911,1.2992539170081727,519.9225376670074,1.6864033339952584,520.22332249998,1.9993924169975799,520.6692776669806,2,1.4347929159994237,None,519285,001,2023-11-28_17h17.04.715,semanticsuppression,2023.2.2,None,2023-11-28 17h17.14.482511 -0800,
69,semanticR,chef,cook,2,0,221,221,68,520.6758517090057,,,,,,,,,,,,520.6697034589888,520.6758517090057,521.6575882089965,521.6575882089965,521.67287983399,521.9563499589858,1.2992947080056183,522.3555819589819,1.6860306249873247,522.6521147919993,1.9993197080038954,523.2398660839826,2,1.5807501249946654,None,519285,001,2023-11-28_17h17.04.715,semanticsuppression,2023.2.2,None,2023-11-28 17h17.14.482511 -0800,
135,Same,cook,cook,2,0,222,222,134,523.2521479169955,,,,,,,,,,,,523.2402868749923,523.2521479169955,524.2356111670088,524.2356111670088,524.24024116699,524.5230421249871,1.299289583985228,524.9355020000075,1.6953937500074971,525.2238250419905,1.9992049589927774,525.4411897090031,2,1.203902957990067,None,519285,001,2023-11-28_17h17.04.715,semanticsuppression,2023.2.2,None,2023-11-28 17h17.14.482511 -0800,
122,1D,boat,goat,2,0,223,223,121,525.4521312500001,,,,,,,,,,,,525.441575749981,525.4521312500001,526.4354503339855,526.4354503339855,526.4403233749908,526.7215220000071,1.3106927500048187,527.1355128749856,1.6969616249843966,527.4241205419821,2.010676457983209,527.719304667,2,1.2788296249927953,None,519285,001,2023-11-28_17h17.04.715,semanticsuppression,2023.2.2,None,2023-11-28 17h17.14.482511 -0800,
117,semanticR,chef,cook,2,0,224,224,116,527.7278603339801,,,,,,,,,,,,527.7196801249811,527.7278603339801,528.7088322920026,528.7088322920026,528.723363750003,529.006549541984,1.2992613329843152,529.4071651669801,1.6876339579757769,529.7021600840089,1.9992572079936508,529.9731567089912,2,1.2625724999816157,None,519285,001,2023-11-28_17h17.04.715,semanticsuppression,2023.2.2,None,2023-11-28 17h17.14.482511 -0800,
111,Same,ship,ship,3,0,225,225,110,529.9855160840089,,,,,,,,,,,,529.9735527090088,529.9855160840089,530.968892874982,530.968892874982,530.9734185419802,531.2575762089982,1.299167833989486,531.6688683749817,1.6954881249985192,531.955872083985,1.9997896249988116,532.356810917001,3,1.3873713329958264,None,519285,001,2023-11-28_17h17.04.715,semanticsuppression,2023.2.2,None,2023-11-28 17h17.14.482511 -0800,
86,1D,goat,boat,3,0,226,226,85,532.3689018340083,,,,,,,,,,,,532.357205791981,532.3689018340083,533.3567154589982,533.3567154589982,533.3567154589982,533.6522648749815,1.3005690000136383,534.0559427499829,1.6950721250032075,534.3522453749902,2.0002954580122605,534.7909914169868,3,1.4325101670110598,None,519285,001,2023-11-28_17h17.04.715,semanticsuppression,2023.2.2,None,2023-11-28 17h17.14.482511 -0800,
205,semanticR,ship,boat,3,0,227,227,204,534.8021562919894,,,,,,,,,,,,534.7913499590068,534.8021562919894,535.7855497499986,535.7855497499986,535.7900893339829,536.0726005839824,1.2993993330164813,536.4855567500053,1.6943630409950856,536.7727807089977,2.010957749997033,537.0742846670037,3,1.2867672500142362,None,519285,001,2023-11-28_17h17.04.715,semanticsuppression,2023.2.2,None,2023-11-28 17h17.14.482511 -0800,
196,Different,book,chef,2,0,228,228,195,537.0855589589919,,,,,,,,,,,,537.0746440840012,537.0855589589919,538.0688646670023,538.0688646670023,538.0737403749954,538.3556689590041,1.2996871250215918,538.7688851669955,1.6943980830255896,539.0562299169833,2.01104758301517,539.3694164589979,2,1.2904895000101533,None,519285,001,2023-11-28_17h17.04.715,semanticsuppression,2023.2.2,None,2023-11-28 17h17.14.482511 -0800,
101,semanticR,boat,ship,3,0,229,229,100,539.3772762919834,,,,,,,,,,,,539.3698052499967,539.3772762919834,540.3576639590028,540.3576639590028,540.3728353749902,540.6576249999925,1.299322041013511,541.0560286249965,1.6992972910229582,541.3546983340057,1.9992455830215476,541.6361908749968,3,1.2681942910130601,None,519285,001,2023-11-28_17h17.04.715,semanticsuppression,2023.2.2,None,2023-11-28 17h17.14.482511 -0800,
220,Different,chef,book,3,0,230,230,219,541.645148666983,,,,,,,,,,,,541.6366117089929,541.645148666983,542.6236143749848,542.6236143749848,542.6396285840019,542.9189837090089,1.2991399159946013,543.335495916981,1.687345957994694,543.622697209008,1.9991520829789806,543.9861166669871,3,1.3552696249971632,None,519285,001,2023-11-28_17h17.04.715,semanticsuppression,2023.2.2,None,2023-11-28 17h17.14.482511 -0800,
120,Different,chef,book,3,0,231,231,119,543.9909802500042,,,,,,,,,,,,543.9864662920008,543.9909802500042,544.9741547089943,544.9741547089943,544.9856476249988,545.2728963749832,1.2992974579974543,545.6724591669918,1.6861448750132695,545.968948166992,1.999277416995028,546.2859861250035,3,1.3070687080034986,None,519285,001,2023-11-28_17h17.04.715,semanticsuppression,2023.2.2,None,2023-11-28 17h17.14.482511 -0800,
,,,,,,,,,,,,,,,,,546.2862804589968,546.2906580840063,556.4856620419887,556.4743550840067,,,,,,,,,,,,,,,,,,,,,,,
